#
# Results on Sunday June 04 2017 16:59:59 UTC.
# USER AGENT: Mozilla/5.0 (Macintosh; Intel Mac OS X 10_12_5) AppleWebKit/603.2.4 (KHTML, like Gecko) Version/10.1.1 Safari/603.2.4
# Design number was non-random = 0
#
# Columns below this comment are as follows:
# 1. Time results were received.
# 2. MD5 hash of participant's IP address.
# 3. Controller name.
# 4. Item number.
# 5. Element number.
# 6. Type.
# 7. Group.
# 8. Field name.
# 9. Field value.
1496595599,47a4eb3ca7896c34da5248e878cc2842,Form,2,0,intro,NULL,name,YK
1496595599,47a4eb3ca7896c34da5248e878cc2842,Form,2,0,intro,NULL,age,34
1496595599,47a4eb3ca7896c34da5248e878cc2842,Form,2,0,intro,NULL,anadil,yes
1496595599,47a4eb3ca7896c34da5248e878cc2842,Form,2,0,intro,NULL,_REACTION_TIME_,66428
1496595599,47a4eb3ca7896c34da5248e878cc2842,Form,3,0,intro,NULL,_REACTION_TIME_,34760
1496595599,47a4eb3ca7896c34da5248e878cc2842,Form,4,0,intro,NULL,_REACTION_TIME_,2041
# Columns below this comment are as follows:
# 1. Time results were received.
# 2. MD5 hash of participant's IP address.
# 3. Controller name.
# 4. Item number.
# 5. Element number.
# 6. Type.
# 7. Group.
# 8. Question (NULL if none).
# 9. Answer.
# 10. Whether or not answer was correct (NULL if N/A).
# 11. Time taken to answer.
1496595599,47a4eb3ca7896c34da5248e878cc2842,Question,30,1,p,NULL,NULL,arayacak,0,4447
1496595599,47a4eb3ca7896c34da5248e878cc2842,Question,32,1,p,NULL,NULL,kahveleri,0,6036
1496595599,47a4eb3ca7896c34da5248e878cc2842,Question,29,1,p,NULL,NULL,barış,1,4937
1496595599,47a4eb3ca7896c34da5248e878cc2842,Question,31,1,p,NULL,NULL,mi,1,3271
# The lines below this comment are in groups of 2.
# The formats of the lines in each of these groups are as follows:
#
# Line 1:
#     Col. 1: Time results were received.
#     Col. 2: MD5 hash of participant's IP address.
#     Col. 3: Controller name.
#     Col. 4: Item number.
#     Col. 5: Element number.
#     Col. 6: Type.
#     Col. 7: Group.
#     Col. 8: Field name.
#     Col. 9: Field value.
# Line 2:
#     Col. 1: Time results were received.
#     Col. 2: MD5 hash of participant's IP address.
#     Col. 3: Controller name.
#     Col. 4: Item number.
#     Col. 5: Element number.
#     Col. 6: Type.
#     Col. 7: Group.
#     Col. 8: Question (NULL if none).
#     Col. 9: Answer.
#     Col. 10: Whether or not answer was correct (NULL if N/A).
#     Col. 11: Time taken to answer.
1496595599,47a4eb3ca7896c34da5248e878cc2842,Form,5,0,devam,NULL,_REACTION_TIME_,2912
1496595599,47a4eb3ca7896c34da5248e878cc2842,Question,13,1,e,NULL,NULL,sanıyor,0,8050
# Columns below this comment are as follows:
# 1. Time results were received.
# 2. MD5 hash of participant's IP address.
# 3. Controller name.
# 4. Item number.
# 5. Element number.
# 6. Type.
# 7. Group.
# 8. Question (NULL if none).
# 9. Answer.
# 10. Whether or not answer was correct (NULL if N/A).
# 11. Time taken to answer.
1496595599,47a4eb3ca7896c34da5248e878cc2842,Question,18,1,e,NULL,NULL,düşünüyor,1,3406
1496595599,47a4eb3ca7896c34da5248e878cc2842,Question,22,1,f,NULL,NULL,gördü,0,1945
1496595599,47a4eb3ca7896c34da5248e878cc2842,Question,10,1,e,NULL,NULL,düşünüyor,1,2976
1496595599,47a4eb3ca7896c34da5248e878cc2842,Question,21,1,f,NULL,NULL,gördü,1,3239
1496595599,47a4eb3ca7896c34da5248e878cc2842,Question,14,1,e,NULL,NULL,düşünüyor,1,4299
1496595599,47a4eb3ca7896c34da5248e878cc2842,Question,19,1,f,NULL,NULL,gördü,1,5924
1496595599,47a4eb3ca7896c34da5248e878cc2842,Question,17,1,e,NULL,NULL,sanıyor,0,3093
1496595599,47a4eb3ca7896c34da5248e878cc2842,Question,24,1,f,NULL,NULL,fark etti,0,2015
1496595599,47a4eb3ca7896c34da5248e878cc2842,Question,7,1,e,NULL,NULL,sanıyor,1,2651
1496595599,47a4eb3ca7896c34da5248e878cc2842,Question,27,1,f,NULL,NULL,fark etti,1,5545
1496595599,47a4eb3ca7896c34da5248e878cc2842,Question,15,1,e,NULL,NULL,sanıyor,1,1422
1496595599,47a4eb3ca7896c34da5248e878cc2842,Question,11,1,e,NULL,NULL,sanıyor,1,2187
1496595599,47a4eb3ca7896c34da5248e878cc2842,Question,20,1,f,NULL,NULL,özledi,1,1387
1496595599,47a4eb3ca7896c34da5248e878cc2842,Question,16,1,e,NULL,NULL,düşünüyor,0,2584
1496595599,47a4eb3ca7896c34da5248e878cc2842,Question,28,1,f,NULL,NULL,fark etti,0,2565
1496595599,47a4eb3ca7896c34da5248e878cc2842,Question,9,1,e,NULL,NULL,biliyor,1,2448
1496595599,47a4eb3ca7896c34da5248e878cc2842,Question,26,1,f,NULL,NULL,unuttu,1,4184
1496595599,47a4eb3ca7896c34da5248e878cc2842,Question,8,1,e,NULL,NULL,hatırlıyor,1,1515
1496595599,47a4eb3ca7896c34da5248e878cc2842,Question,25,1,f,NULL,NULL,fark etti,1,2206
1496595599,47a4eb3ca7896c34da5248e878cc2842,Question,12,1,e,NULL,NULL,düşünüyor,0,1558
1496595599,47a4eb3ca7896c34da5248e878cc2842,Question,23,1,f,NULL,NULL,özledi,0,3573
# The lines below this comment are in groups of 2.
# The formats of the lines in each of these groups are as follows:
#
# Line 1:
#     Col. 1: Time results were received.
#     Col. 2: MD5 hash of participant's IP address.
#     Col. 3: Controller name.
#     Col. 4: Item number.
#     Col. 5: Element number.
#     Col. 6: Type.
#     Col. 7: Group.
#     Col. 8: Field name.
#     Col. 9: Field value.
# Line 2:
#     Col. 1: Time results were received.
#     Col. 2: MD5 hash of participant's IP address.
#     Col. 3: Controller name.
#     Col. 4: Item number.
#     Col. 5: Element number.
#     Col. 6: Type.
#     Col. 7: Group.
#     Col. 8: Question (NULL if none).
#     Col. 9: Answer.
#     Col. 10: Whether or not answer was correct (NULL if N/A).
#     Col. 11: Time taken to answer.
1496595599,47a4eb3ca7896c34da5248e878cc2842,Form,6,0,son,NULL,_REACTION_TIME_,11906
1496595599,47a4eb3ca7896c34da5248e878cc2842,Question,35,1,c,NULL,NULL,Öğretmen Paris'te yaşamış.,1,13292
# Columns below this comment are as follows:
# 1. Time results were received.
# 2. MD5 hash of participant's IP address.
# 3. Controller name.
# 4. Item number.
# 5. Element number.
# 6. Type.
# 7. Group.
# 8. Question (NULL if none).
# 9. Answer.
# 10. Whether or not answer was correct (NULL if N/A).
# 11. Time taken to answer.
1496595599,47a4eb3ca7896c34da5248e878cc2842,Question,34,1,n,NULL,NULL,Başkanın düşüncesi 'ortak bir karara varmak zor olmayacak' şeklinde.,1,9190
1496595599,47a4eb3ca7896c34da5248e878cc2842,Question,36,1,c,NULL,NULL,Referandumu yüzde yüzle kazanmış.,1,5718
1496595599,47a4eb3ca7896c34da5248e878cc2842,Question,33,1,n,NULL,NULL,Ayşe'nin düşüncesi 'yağmur yağmıyor' şeklinde.,1,9697
#
# Results on Monday June 05 2017 15:47:09 UTC.
# USER AGENT: Mozilla/5.0 (Windows NT 10.0; Win64; x64) AppleWebKit/537.36 (KHTML, like Gecko) Chrome/58.0.3029.110 Safari/537.36
# Design number was non-random = 1
#
# Columns below this comment are as follows:
# 1. Time results were received.
# 2. MD5 hash of participant's IP address.
# 3. Controller name.
# 4. Item number.
# 5. Element number.
# 6. Type.
# 7. Group.
# 8. Field name.
# 9. Field value.
1496677630,69af2fe205652daf2dbd9b32d39bc489,Form,2,0,intro,NULL,name,AOA
1496677630,69af2fe205652daf2dbd9b32d39bc489,Form,2,0,intro,NULL,age,26
1496677630,69af2fe205652daf2dbd9b32d39bc489,Form,2,0,intro,NULL,anadil,yes
1496677630,69af2fe205652daf2dbd9b32d39bc489,Form,2,0,intro,NULL,_REACTION_TIME_,17406
1496677630,69af2fe205652daf2dbd9b32d39bc489,Form,3,0,intro,NULL,_REACTION_TIME_,14214
1496677630,69af2fe205652daf2dbd9b32d39bc489,Form,4,0,intro,NULL,_REACTION_TIME_,2959
# Columns below this comment are as follows:
# 1. Time results were received.
# 2. MD5 hash of participant's IP address.
# 3. Controller name.
# 4. Item number.
# 5. Element number.
# 6. Type.
# 7. Group.
# 8. Question (NULL if none).
# 9. Answer.
# 10. Whether or not answer was correct (NULL if N/A).
# 11. Time taken to answer.
1496677630,69af2fe205652daf2dbd9b32d39bc489,Question,31,1,p,NULL,NULL,mi,1,3370
1496677630,69af2fe205652daf2dbd9b32d39bc489,Question,30,1,p,NULL,NULL,arayacak,0,4054
1496677630,69af2fe205652daf2dbd9b32d39bc489,Question,32,1,p,NULL,NULL,kahveleri,0,1662
1496677630,69af2fe205652daf2dbd9b32d39bc489,Question,29,1,p,NULL,NULL,savaş,0,7597
# The lines below this comment are in groups of 2.
# The formats of the lines in each of these groups are as follows:
#
# Line 1:
#     Col. 1: Time results were received.
#     Col. 2: MD5 hash of participant's IP address.
#     Col. 3: Controller name.
#     Col. 4: Item number.
#     Col. 5: Element number.
#     Col. 6: Type.
#     Col. 7: Group.
#     Col. 8: Field name.
#     Col. 9: Field value.
# Line 2:
#     Col. 1: Time results were received.
#     Col. 2: MD5 hash of participant's IP address.
#     Col. 3: Controller name.
#     Col. 4: Item number.
#     Col. 5: Element number.
#     Col. 6: Type.
#     Col. 7: Group.
#     Col. 8: Question (NULL if none).
#     Col. 9: Answer.
#     Col. 10: Whether or not answer was correct (NULL if N/A).
#     Col. 11: Time taken to answer.
1496677630,69af2fe205652daf2dbd9b32d39bc489,Form,5,0,devam,NULL,_REACTION_TIME_,1720
1496677630,69af2fe205652daf2dbd9b32d39bc489,Question,10,1,e,NULL,NULL,düşünüyor,1,4823
# Columns below this comment are as follows:
# 1. Time results were received.
# 2. MD5 hash of participant's IP address.
# 3. Controller name.
# 4. Item number.
# 5. Element number.
# 6. Type.
# 7. Group.
# 8. Question (NULL if none).
# 9. Answer.
# 10. Whether or not answer was correct (NULL if N/A).
# 11. Time taken to answer.
1496677630,69af2fe205652daf2dbd9b32d39bc489,Question,23,1,f,NULL,NULL,gördü,1,4547
1496677630,69af2fe205652daf2dbd9b32d39bc489,Question,11,1,e,NULL,NULL,sanıyor,1,1840
1496677630,69af2fe205652daf2dbd9b32d39bc489,Question,19,1,f,NULL,NULL,gördü,1,2097
1496677630,69af2fe205652daf2dbd9b32d39bc489,Question,9,1,e,NULL,NULL,biliyor,1,1913
1496677630,69af2fe205652daf2dbd9b32d39bc489,Question,21,1,f,NULL,NULL,gördü,1,1261
1496677630,69af2fe205652daf2dbd9b32d39bc489,Question,14,1,e,NULL,NULL,hatırlıyor,0,1354
1496677630,69af2fe205652daf2dbd9b32d39bc489,Question,27,1,f,NULL,NULL,fark etti,1,1855
1496677630,69af2fe205652daf2dbd9b32d39bc489,Question,17,1,e,NULL,NULL,biliyor,1,2129
1496677630,69af2fe205652daf2dbd9b32d39bc489,Question,26,1,f,NULL,NULL,fark etti,0,1332
1496677630,69af2fe205652daf2dbd9b32d39bc489,Question,13,1,e,NULL,NULL,biliyor,1,2022
1496677630,69af2fe205652daf2dbd9b32d39bc489,Question,18,1,e,NULL,NULL,hatırlıyor,0,4206
1496677630,69af2fe205652daf2dbd9b32d39bc489,Question,24,1,f,NULL,NULL,unuttu,1,4407
1496677630,69af2fe205652daf2dbd9b32d39bc489,Question,16,1,e,NULL,NULL,düşünüyor,0,3461
1496677630,69af2fe205652daf2dbd9b32d39bc489,Question,25,1,f,NULL,NULL,fark etti,1,1862
1496677630,69af2fe205652daf2dbd9b32d39bc489,Question,7,1,e,NULL,NULL,biliyor,0,2909
1496677630,69af2fe205652daf2dbd9b32d39bc489,Question,22,1,f,NULL,NULL,özledi,1,2522
1496677630,69af2fe205652daf2dbd9b32d39bc489,Question,8,1,e,NULL,NULL,düşünüyor,0,5407
1496677630,69af2fe205652daf2dbd9b32d39bc489,Question,20,1,f,NULL,NULL,gördü,0,3648
1496677630,69af2fe205652daf2dbd9b32d39bc489,Question,15,1,e,NULL,NULL,biliyor,0,1657
1496677630,69af2fe205652daf2dbd9b32d39bc489,Question,28,1,f,NULL,NULL,fark etti,0,1559
1496677630,69af2fe205652daf2dbd9b32d39bc489,Question,12,1,e,NULL,NULL,düşünüyor,0,1762
# The lines below this comment are in groups of 2.
# The formats of the lines in each of these groups are as follows:
#
# Line 1:
#     Col. 1: Time results were received.
#     Col. 2: MD5 hash of participant's IP address.
#     Col. 3: Controller name.
#     Col. 4: Item number.
#     Col. 5: Element number.
#     Col. 6: Type.
#     Col. 7: Group.
#     Col. 8: Field name.
#     Col. 9: Field value.
# Line 2:
#     Col. 1: Time results were received.
#     Col. 2: MD5 hash of participant's IP address.
#     Col. 3: Controller name.
#     Col. 4: Item number.
#     Col. 5: Element number.
#     Col. 6: Type.
#     Col. 7: Group.
#     Col. 8: Question (NULL if none).
#     Col. 9: Answer.
#     Col. 10: Whether or not answer was correct (NULL if N/A).
#     Col. 11: Time taken to answer.
1496677630,69af2fe205652daf2dbd9b32d39bc489,Form,6,0,son,NULL,_REACTION_TIME_,6647
1496677630,69af2fe205652daf2dbd9b32d39bc489,Question,36,1,c,NULL,NULL,Referandumu yüzde yüzle kazanmış.,1,4053
# Columns below this comment are as follows:
# 1. Time results were received.
# 2. MD5 hash of participant's IP address.
# 3. Controller name.
# 4. Item number.
# 5. Element number.
# 6. Type.
# 7. Group.
# 8. Question (NULL if none).
# 9. Answer.
# 10. Whether or not answer was correct (NULL if N/A).
# 11. Time taken to answer.
1496677630,69af2fe205652daf2dbd9b32d39bc489,Question,33,1,n,NULL,NULL,Ayşe'nin düşüncesi 'yağmur yağmıyor' şeklinde.,1,13804
1496677630,69af2fe205652daf2dbd9b32d39bc489,Question,35,1,c,NULL,NULL,Öğretmen Paris'te yaşamış.,1,3113
1496677630,69af2fe205652daf2dbd9b32d39bc489,Question,34,1,n,NULL,NULL,Başkanın düşüncesi 'ortak bir karara varmak zor olmayacak' şeklinde.,1,5343
#
# Results on Monday June 05 2017 15:50:25 UTC.
# USER AGENT: Mozilla/5.0 (Windows NT 10.0; Win64; x64) AppleWebKit/537.36 (KHTML, like Gecko) Chrome/58.0.3029.110 Safari/537.36
# Design number was non-random = 1
#
# Columns below this comment are as follows:
# 1. Time results were received.
# 2. MD5 hash of participant's IP address.
# 3. Controller name.
# 4. Item number.
# 5. Element number.
# 6. Type.
# 7. Group.
# 8. Field name.
# 9. Field value.
1496677826,0203552dfa879f18749afc14625324fe,Form,2,0,intro,NULL,name,BS
1496677826,0203552dfa879f18749afc14625324fe,Form,2,0,intro,NULL,age,22
1496677826,0203552dfa879f18749afc14625324fe,Form,2,0,intro,NULL,anadil,yes
1496677826,0203552dfa879f18749afc14625324fe,Form,2,0,intro,NULL,_REACTION_TIME_,20272
1496677826,0203552dfa879f18749afc14625324fe,Form,3,0,intro,NULL,_REACTION_TIME_,1826
1496677826,0203552dfa879f18749afc14625324fe,Form,4,0,intro,NULL,_REACTION_TIME_,1424
# Columns below this comment are as follows:
# 1. Time results were received.
# 2. MD5 hash of participant's IP address.
# 3. Controller name.
# 4. Item number.
# 5. Element number.
# 6. Type.
# 7. Group.
# 8. Question (NULL if none).
# 9. Answer.
# 10. Whether or not answer was correct (NULL if N/A).
# 11. Time taken to answer.
1496677826,0203552dfa879f18749afc14625324fe,Question,29,1,p,NULL,NULL,barış,1,1013
1496677826,0203552dfa879f18749afc14625324fe,Question,32,1,p,NULL,NULL,kahveleri,0,693
1496677826,0203552dfa879f18749afc14625324fe,Question,30,1,p,NULL,NULL,arayacak,0,6897
1496677826,0203552dfa879f18749afc14625324fe,Question,31,1,p,NULL,NULL,mi,1,1751
# The lines below this comment are in groups of 2.
# The formats of the lines in each of these groups are as follows:
#
# Line 1:
#     Col. 1: Time results were received.
#     Col. 2: MD5 hash of participant's IP address.
#     Col. 3: Controller name.
#     Col. 4: Item number.
#     Col. 5: Element number.
#     Col. 6: Type.
#     Col. 7: Group.
#     Col. 8: Field name.
#     Col. 9: Field value.
# Line 2:
#     Col. 1: Time results were received.
#     Col. 2: MD5 hash of participant's IP address.
#     Col. 3: Controller name.
#     Col. 4: Item number.
#     Col. 5: Element number.
#     Col. 6: Type.
#     Col. 7: Group.
#     Col. 8: Question (NULL if none).
#     Col. 9: Answer.
#     Col. 10: Whether or not answer was correct (NULL if N/A).
#     Col. 11: Time taken to answer.
1496677826,0203552dfa879f18749afc14625324fe,Form,5,0,devam,NULL,_REACTION_TIME_,2383
1496677826,0203552dfa879f18749afc14625324fe,Question,14,1,e,NULL,NULL,düşünüyor,1,1323
# Columns below this comment are as follows:
# 1. Time results were received.
# 2. MD5 hash of participant's IP address.
# 3. Controller name.
# 4. Item number.
# 5. Element number.
# 6. Type.
# 7. Group.
# 8. Question (NULL if none).
# 9. Answer.
# 10. Whether or not answer was correct (NULL if N/A).
# 11. Time taken to answer.
1496677826,0203552dfa879f18749afc14625324fe,Question,19,1,f,NULL,NULL,özledi,0,2691
1496677826,0203552dfa879f18749afc14625324fe,Question,9,1,e,NULL,NULL,biliyor,1,1115
1496677826,0203552dfa879f18749afc14625324fe,Question,25,1,f,NULL,NULL,fark etti,1,1382
1496677826,0203552dfa879f18749afc14625324fe,Question,15,1,e,NULL,NULL,biliyor,0,1259
1496677826,0203552dfa879f18749afc14625324fe,Question,27,1,f,NULL,NULL,unuttu,0,2374
1496677826,0203552dfa879f18749afc14625324fe,Question,10,1,e,NULL,NULL,hatırlıyor,0,1695
1496677826,0203552dfa879f18749afc14625324fe,Question,20,1,f,NULL,NULL,gördü,0,1796
1496677826,0203552dfa879f18749afc14625324fe,Question,17,1,e,NULL,NULL,biliyor,1,1910
1496677826,0203552dfa879f18749afc14625324fe,Question,22,1,f,NULL,NULL,gördü,0,1123
1496677826,0203552dfa879f18749afc14625324fe,Question,13,1,e,NULL,NULL,sanıyor,0,2598
1496677826,0203552dfa879f18749afc14625324fe,Question,11,1,e,NULL,NULL,biliyor,0,2123
1496677826,0203552dfa879f18749afc14625324fe,Question,24,1,f,NULL,NULL,fark etti,0,1401
1496677826,0203552dfa879f18749afc14625324fe,Question,18,1,e,NULL,NULL,düşünüyor,1,962
1496677826,0203552dfa879f18749afc14625324fe,Question,23,1,f,NULL,NULL,özledi,0,1259
1496677826,0203552dfa879f18749afc14625324fe,Question,16,1,e,NULL,NULL,hatırlıyor,1,1866
1496677826,0203552dfa879f18749afc14625324fe,Question,28,1,f,NULL,NULL,fark etti,0,1278
1496677826,0203552dfa879f18749afc14625324fe,Question,8,1,e,NULL,NULL,düşünüyor,0,1913
1496677826,0203552dfa879f18749afc14625324fe,Question,21,1,f,NULL,NULL,özledi,0,1350
1496677826,0203552dfa879f18749afc14625324fe,Question,12,1,e,NULL,NULL,düşünüyor,0,2052
1496677826,0203552dfa879f18749afc14625324fe,Question,26,1,f,NULL,NULL,fark etti,0,3368
1496677826,0203552dfa879f18749afc14625324fe,Question,7,1,e,NULL,NULL,sanıyor,1,2611
# The lines below this comment are in groups of 2.
# The formats of the lines in each of these groups are as follows:
#
# Line 1:
#     Col. 1: Time results were received.
#     Col. 2: MD5 hash of participant's IP address.
#     Col. 3: Controller name.
#     Col. 4: Item number.
#     Col. 5: Element number.
#     Col. 6: Type.
#     Col. 7: Group.
#     Col. 8: Field name.
#     Col. 9: Field value.
# Line 2:
#     Col. 1: Time results were received.
#     Col. 2: MD5 hash of participant's IP address.
#     Col. 3: Controller name.
#     Col. 4: Item number.
#     Col. 5: Element number.
#     Col. 6: Type.
#     Col. 7: Group.
#     Col. 8: Question (NULL if none).
#     Col. 9: Answer.
#     Col. 10: Whether or not answer was correct (NULL if N/A).
#     Col. 11: Time taken to answer.
1496677826,0203552dfa879f18749afc14625324fe,Form,6,0,son,NULL,_REACTION_TIME_,12264
1496677826,0203552dfa879f18749afc14625324fe,Question,35,1,c,NULL,NULL,Öğretmen Paris'te yaşamış.,1,3931
# Columns below this comment are as follows:
# 1. Time results were received.
# 2. MD5 hash of participant's IP address.
# 3. Controller name.
# 4. Item number.
# 5. Element number.
# 6. Type.
# 7. Group.
# 8. Question (NULL if none).
# 9. Answer.
# 10. Whether or not answer was correct (NULL if N/A).
# 11. Time taken to answer.
1496677826,0203552dfa879f18749afc14625324fe,Question,33,1,n,NULL,NULL,Ayşe'nin düşüncesi 'yağmur yağmıyor' şeklinde.,1,7689
1496677826,0203552dfa879f18749afc14625324fe,Question,36,1,c,NULL,NULL,Referandumu yüzde yüzle kazanmış.,1,4288
1496677826,0203552dfa879f18749afc14625324fe,Question,34,1,n,NULL,NULL,Başkanın düşüncesi 'ortak bir karara varmak zor olmayacak' şeklinde.,1,6837
#
# Results on Monday June 05 2017 17:41:28 UTC.
# USER AGENT: Mozilla/5.0 (Windows NT 6.1; Win64; x64) AppleWebKit/537.36 (KHTML, like Gecko) Chrome/58.0.3029.110 Safari/537.36
# Design number was non-random = 3
#
# Columns below this comment are as follows:
# 1. Time results were received.
# 2. MD5 hash of participant's IP address.
# 3. Controller name.
# 4. Item number.
# 5. Element number.
# 6. Type.
# 7. Group.
# 8. Field name.
# 9. Field value.
1496684488,9354287e0c27040da152d82c04a89a2b,Form,2,0,intro,NULL,name,FR
1496684488,9354287e0c27040da152d82c04a89a2b,Form,2,0,intro,NULL,age,34
1496684488,9354287e0c27040da152d82c04a89a2b,Form,2,0,intro,NULL,anadil,yes
1496684488,9354287e0c27040da152d82c04a89a2b,Form,2,0,intro,NULL,_REACTION_TIME_,8464
1496684488,9354287e0c27040da152d82c04a89a2b,Form,3,0,intro,NULL,_REACTION_TIME_,16907
1496684488,9354287e0c27040da152d82c04a89a2b,Form,4,0,intro,NULL,_REACTION_TIME_,1678
# Columns below this comment are as follows:
# 1. Time results were received.
# 2. MD5 hash of participant's IP address.
# 3. Controller name.
# 4. Item number.
# 5. Element number.
# 6. Type.
# 7. Group.
# 8. Question (NULL if none).
# 9. Answer.
# 10. Whether or not answer was correct (NULL if N/A).
# 11. Time taken to answer.
1496684488,9354287e0c27040da152d82c04a89a2b,Question,30,1,p,NULL,NULL,kaçırdı,1,2429
1496684488,9354287e0c27040da152d82c04a89a2b,Question,31,1,p,NULL,NULL,mi,1,883
1496684488,9354287e0c27040da152d82c04a89a2b,Question,29,1,p,NULL,NULL,savaş,0,3552
1496684488,9354287e0c27040da152d82c04a89a2b,Question,32,1,p,NULL,NULL,kahveleri,0,1031
# The lines below this comment are in groups of 2.
# The formats of the lines in each of these groups are as follows:
#
# Line 1:
#     Col. 1: Time results were received.
#     Col. 2: MD5 hash of participant's IP address.
#     Col. 3: Controller name.
#     Col. 4: Item number.
#     Col. 5: Element number.
#     Col. 6: Type.
#     Col. 7: Group.
#     Col. 8: Field name.
#     Col. 9: Field value.
# Line 2:
#     Col. 1: Time results were received.
#     Col. 2: MD5 hash of participant's IP address.
#     Col. 3: Controller name.
#     Col. 4: Item number.
#     Col. 5: Element number.
#     Col. 6: Type.
#     Col. 7: Group.
#     Col. 8: Question (NULL if none).
#     Col. 9: Answer.
#     Col. 10: Whether or not answer was correct (NULL if N/A).
#     Col. 11: Time taken to answer.
1496684488,9354287e0c27040da152d82c04a89a2b,Form,5,0,devam,NULL,_REACTION_TIME_,2518
1496684488,9354287e0c27040da152d82c04a89a2b,Question,10,1,e,NULL,NULL,düşünüyor,1,1695
# Columns below this comment are as follows:
# 1. Time results were received.
# 2. MD5 hash of participant's IP address.
# 3. Controller name.
# 4. Item number.
# 5. Element number.
# 6. Type.
# 7. Group.
# 8. Question (NULL if none).
# 9. Answer.
# 10. Whether or not answer was correct (NULL if N/A).
# 11. Time taken to answer.
1496684488,9354287e0c27040da152d82c04a89a2b,Question,16,1,e,NULL,NULL,düşünüyor,0,1703
1496684488,9354287e0c27040da152d82c04a89a2b,Question,28,1,f,NULL,NULL,fark etti,0,1840
1496684488,9354287e0c27040da152d82c04a89a2b,Question,15,1,e,NULL,NULL,biliyor,0,2875
1496684488,9354287e0c27040da152d82c04a89a2b,Question,27,1,f,NULL,NULL,unuttu,0,2863
1496684488,9354287e0c27040da152d82c04a89a2b,Question,12,1,e,NULL,NULL,düşünüyor,0,1235
1496684488,9354287e0c27040da152d82c04a89a2b,Question,26,1,f,NULL,NULL,unuttu,1,2947
1496684488,9354287e0c27040da152d82c04a89a2b,Question,11,1,e,NULL,NULL,biliyor,0,1375
1496684488,9354287e0c27040da152d82c04a89a2b,Question,23,1,f,NULL,NULL,gördü,1,1484
1496684488,9354287e0c27040da152d82c04a89a2b,Question,13,1,e,NULL,NULL,biliyor,1,1583
1496684488,9354287e0c27040da152d82c04a89a2b,Question,25,1,f,NULL,NULL,unuttu,0,5831
1496684488,9354287e0c27040da152d82c04a89a2b,Question,8,1,e,NULL,NULL,düşünüyor,0,1223
1496684488,9354287e0c27040da152d82c04a89a2b,Question,17,1,e,NULL,NULL,biliyor,1,1060
1496684488,9354287e0c27040da152d82c04a89a2b,Question,24,1,f,NULL,NULL,unuttu,1,2111
1496684488,9354287e0c27040da152d82c04a89a2b,Question,9,1,e,NULL,NULL,biliyor,1,1735
1496684488,9354287e0c27040da152d82c04a89a2b,Question,22,1,f,NULL,NULL,gördü,0,2195
1496684488,9354287e0c27040da152d82c04a89a2b,Question,7,1,e,NULL,NULL,sanıyor,1,1363
1496684488,9354287e0c27040da152d82c04a89a2b,Question,21,1,f,NULL,NULL,gördü,1,2451
1496684488,9354287e0c27040da152d82c04a89a2b,Question,18,1,e,NULL,NULL,düşünüyor,1,1627
1496684488,9354287e0c27040da152d82c04a89a2b,Question,19,1,f,NULL,NULL,gördü,1,1355
1496684488,9354287e0c27040da152d82c04a89a2b,Question,14,1,e,NULL,NULL,hatırlıyor,0,959
1496684488,9354287e0c27040da152d82c04a89a2b,Question,20,1,f,NULL,NULL,gördü,0,1075
# The lines below this comment are in groups of 2.
# The formats of the lines in each of these groups are as follows:
#
# Line 1:
#     Col. 1: Time results were received.
#     Col. 2: MD5 hash of participant's IP address.
#     Col. 3: Controller name.
#     Col. 4: Item number.
#     Col. 5: Element number.
#     Col. 6: Type.
#     Col. 7: Group.
#     Col. 8: Field name.
#     Col. 9: Field value.
# Line 2:
#     Col. 1: Time results were received.
#     Col. 2: MD5 hash of participant's IP address.
#     Col. 3: Controller name.
#     Col. 4: Item number.
#     Col. 5: Element number.
#     Col. 6: Type.
#     Col. 7: Group.
#     Col. 8: Question (NULL if none).
#     Col. 9: Answer.
#     Col. 10: Whether or not answer was correct (NULL if N/A).
#     Col. 11: Time taken to answer.
1496684488,9354287e0c27040da152d82c04a89a2b,Form,6,0,son,NULL,_REACTION_TIME_,2534
1496684488,9354287e0c27040da152d82c04a89a2b,Question,35,1,c,NULL,NULL,Öğretmen Paris'te yaşamamış olabilir.,0,6519
# Columns below this comment are as follows:
# 1. Time results were received.
# 2. MD5 hash of participant's IP address.
# 3. Controller name.
# 4. Item number.
# 5. Element number.
# 6. Type.
# 7. Group.
# 8. Question (NULL if none).
# 9. Answer.
# 10. Whether or not answer was correct (NULL if N/A).
# 11. Time taken to answer.
1496684488,9354287e0c27040da152d82c04a89a2b,Question,33,1,n,NULL,NULL,Ayşe'nin düşüncesi 'yağmur yağıyor' şeklinde değil.,0,6760
1496684488,9354287e0c27040da152d82c04a89a2b,Question,36,1,c,NULL,NULL,Referandumu yüzde yüzle kazanmış.,1,2543
1496684488,9354287e0c27040da152d82c04a89a2b,Question,34,1,n,NULL,NULL,Başkanın düşüncesi 'ortak bir karara varmak zor olacak' şeklinde değil.,0,2569
#
# Results on Monday June 05 2017 18:34:22 UTC.
# USER AGENT: Mozilla/5.0 (Macintosh; Intel Mac OS X 10_12_5) AppleWebKit/537.36 (KHTML, like Gecko) Chrome/58.0.3029.110 Safari/537.36
# Design number was non-random = 4
#
# Columns below this comment are as follows:
# 1. Time results were received.
# 2. MD5 hash of participant's IP address.
# 3. Controller name.
# 4. Item number.
# 5. Element number.
# 6. Type.
# 7. Group.
# 8. Field name.
# 9. Field value.
1496687663,1505c9a7edc191541a9e96895cf93079,Form,2,0,intro,NULL,name,S Ş
1496687663,1505c9a7edc191541a9e96895cf93079,Form,2,0,intro,NULL,age,22
1496687663,1505c9a7edc191541a9e96895cf93079,Form,2,0,intro,NULL,anadil,yes
1496687663,1505c9a7edc191541a9e96895cf93079,Form,2,0,intro,NULL,_REACTION_TIME_,11398
1496687663,1505c9a7edc191541a9e96895cf93079,Form,3,0,intro,NULL,_REACTION_TIME_,4505
1496687663,1505c9a7edc191541a9e96895cf93079,Form,4,0,intro,NULL,_REACTION_TIME_,6416
# Columns below this comment are as follows:
# 1. Time results were received.
# 2. MD5 hash of participant's IP address.
# 3. Controller name.
# 4. Item number.
# 5. Element number.
# 6. Type.
# 7. Group.
# 8. Question (NULL if none).
# 9. Answer.
# 10. Whether or not answer was correct (NULL if N/A).
# 11. Time taken to answer.
1496687663,1505c9a7edc191541a9e96895cf93079,Question,29,1,p,NULL,NULL,savaş,0,3930
1496687663,1505c9a7edc191541a9e96895cf93079,Question,30,1,p,NULL,NULL,arayacak,0,5254
1496687663,1505c9a7edc191541a9e96895cf93079,Question,31,1,p,NULL,NULL,mi,1,3484
1496687663,1505c9a7edc191541a9e96895cf93079,Question,32,1,p,NULL,NULL,kahveleri,0,1703
# The lines below this comment are in groups of 2.
# The formats of the lines in each of these groups are as follows:
#
# Line 1:
#     Col. 1: Time results were received.
#     Col. 2: MD5 hash of participant's IP address.
#     Col. 3: Controller name.
#     Col. 4: Item number.
#     Col. 5: Element number.
#     Col. 6: Type.
#     Col. 7: Group.
#     Col. 8: Field name.
#     Col. 9: Field value.
# Line 2:
#     Col. 1: Time results were received.
#     Col. 2: MD5 hash of participant's IP address.
#     Col. 3: Controller name.
#     Col. 4: Item number.
#     Col. 5: Element number.
#     Col. 6: Type.
#     Col. 7: Group.
#     Col. 8: Question (NULL if none).
#     Col. 9: Answer.
#     Col. 10: Whether or not answer was correct (NULL if N/A).
#     Col. 11: Time taken to answer.
1496687663,1505c9a7edc191541a9e96895cf93079,Form,5,0,devam,NULL,_REACTION_TIME_,1949
1496687663,1505c9a7edc191541a9e96895cf93079,Question,13,1,e,NULL,NULL,sanıyor,0,2284
# Columns below this comment are as follows:
# 1. Time results were received.
# 2. MD5 hash of participant's IP address.
# 3. Controller name.
# 4. Item number.
# 5. Element number.
# 6. Type.
# 7. Group.
# 8. Question (NULL if none).
# 9. Answer.
# 10. Whether or not answer was correct (NULL if N/A).
# 11. Time taken to answer.
1496687663,1505c9a7edc191541a9e96895cf93079,Question,25,1,f,NULL,NULL,fark etti,1,1152
1496687663,1505c9a7edc191541a9e96895cf93079,Question,14,1,e,NULL,NULL,hatırlıyor,0,1907
1496687663,1505c9a7edc191541a9e96895cf93079,Question,24,1,f,NULL,NULL,fark etti,0,1905
1496687663,1505c9a7edc191541a9e96895cf93079,Question,15,1,e,NULL,NULL,biliyor,0,1376
1496687663,1505c9a7edc191541a9e96895cf93079,Question,20,1,f,NULL,NULL,özledi,1,3983
1496687663,1505c9a7edc191541a9e96895cf93079,Question,7,1,e,NULL,NULL,biliyor,0,1729
1496687663,1505c9a7edc191541a9e96895cf93079,Question,26,1,f,NULL,NULL,fark etti,0,1949
1496687663,1505c9a7edc191541a9e96895cf93079,Question,9,1,e,NULL,NULL,sanıyor,0,4625
1496687663,1505c9a7edc191541a9e96895cf93079,Question,23,1,f,NULL,NULL,özledi,0,2008
1496687663,1505c9a7edc191541a9e96895cf93079,Question,10,1,e,NULL,NULL,düşünüyor,1,1903
1496687663,1505c9a7edc191541a9e96895cf93079,Question,8,1,e,NULL,NULL,düşünüyor,0,2673
1496687663,1505c9a7edc191541a9e96895cf93079,Question,28,1,f,NULL,NULL,fark etti,0,2238
1496687663,1505c9a7edc191541a9e96895cf93079,Question,17,1,e,NULL,NULL,sanıyor,0,2356
1496687663,1505c9a7edc191541a9e96895cf93079,Question,27,1,f,NULL,NULL,fark etti,1,11756
1496687663,1505c9a7edc191541a9e96895cf93079,Question,12,1,e,NULL,NULL,düşünüyor,0,2149
1496687663,1505c9a7edc191541a9e96895cf93079,Question,21,1,f,NULL,NULL,özledi,0,1949
1496687663,1505c9a7edc191541a9e96895cf93079,Question,11,1,e,NULL,NULL,biliyor,0,1385
1496687663,1505c9a7edc191541a9e96895cf93079,Question,22,1,f,NULL,NULL,gördü,0,4171
1496687663,1505c9a7edc191541a9e96895cf93079,Question,18,1,e,NULL,NULL,hatırlıyor,0,1925
1496687663,1505c9a7edc191541a9e96895cf93079,Question,19,1,f,NULL,NULL,özledi,0,3072
1496687663,1505c9a7edc191541a9e96895cf93079,Question,16,1,e,NULL,NULL,düşünüyor,0,2584
# The lines below this comment are in groups of 2.
# The formats of the lines in each of these groups are as follows:
#
# Line 1:
#     Col. 1: Time results were received.
#     Col. 2: MD5 hash of participant's IP address.
#     Col. 3: Controller name.
#     Col. 4: Item number.
#     Col. 5: Element number.
#     Col. 6: Type.
#     Col. 7: Group.
#     Col. 8: Field name.
#     Col. 9: Field value.
# Line 2:
#     Col. 1: Time results were received.
#     Col. 2: MD5 hash of participant's IP address.
#     Col. 3: Controller name.
#     Col. 4: Item number.
#     Col. 5: Element number.
#     Col. 6: Type.
#     Col. 7: Group.
#     Col. 8: Question (NULL if none).
#     Col. 9: Answer.
#     Col. 10: Whether or not answer was correct (NULL if N/A).
#     Col. 11: Time taken to answer.
1496687663,1505c9a7edc191541a9e96895cf93079,Form,6,0,son,NULL,_REACTION_TIME_,7329
1496687663,1505c9a7edc191541a9e96895cf93079,Question,33,1,n,NULL,NULL,Ayşe'nin düşüncesi 'yağmur yağıyor' şeklinde değil.,0,7221
# Columns below this comment are as follows:
# 1. Time results were received.
# 2. MD5 hash of participant's IP address.
# 3. Controller name.
# 4. Item number.
# 5. Element number.
# 6. Type.
# 7. Group.
# 8. Question (NULL if none).
# 9. Answer.
# 10. Whether or not answer was correct (NULL if N/A).
# 11. Time taken to answer.
1496687663,1505c9a7edc191541a9e96895cf93079,Question,35,1,c,NULL,NULL,Öğretmen Paris'te yaşamamış olabilir.,0,7352
1496687663,1505c9a7edc191541a9e96895cf93079,Question,34,1,n,NULL,NULL,Başkanın düşüncesi 'ortak bir karara varmak zor olmayacak' şeklinde.,1,6412
1496687663,1505c9a7edc191541a9e96895cf93079,Question,36,1,c,NULL,NULL,Referandumu yüzde yüzle kazanmış.,1,9924
#
# Results on Monday June 05 2017 19:48:52 UTC.
# USER AGENT: Mozilla/5.0 (Windows NT 6.1) AppleWebKit/537.36 (KHTML, like Gecko) Chrome/58.0.3029.110 Safari/537.36
# Design number was non-random = 5
#
# Columns below this comment are as follows:
# 1. Time results were received.
# 2. MD5 hash of participant's IP address.
# 3. Controller name.
# 4. Item number.
# 5. Element number.
# 6. Type.
# 7. Group.
# 8. Field name.
# 9. Field value.
1496692132,5f3652d47a7f41e2c2ee43d41b3c6f6d,Form,2,0,intro,NULL,name,O A
1496692132,5f3652d47a7f41e2c2ee43d41b3c6f6d,Form,2,0,intro,NULL,age,27
1496692132,5f3652d47a7f41e2c2ee43d41b3c6f6d,Form,2,0,intro,NULL,anadil,yes
1496692132,5f3652d47a7f41e2c2ee43d41b3c6f6d,Form,2,0,intro,NULL,_REACTION_TIME_,13218
1496692132,5f3652d47a7f41e2c2ee43d41b3c6f6d,Form,3,0,intro,NULL,_REACTION_TIME_,17047
1496692132,5f3652d47a7f41e2c2ee43d41b3c6f6d,Form,4,0,intro,NULL,_REACTION_TIME_,13671
# Columns below this comment are as follows:
# 1. Time results were received.
# 2. MD5 hash of participant's IP address.
# 3. Controller name.
# 4. Item number.
# 5. Element number.
# 6. Type.
# 7. Group.
# 8. Question (NULL if none).
# 9. Answer.
# 10. Whether or not answer was correct (NULL if N/A).
# 11. Time taken to answer.
1496692132,5f3652d47a7f41e2c2ee43d41b3c6f6d,Question,29,1,p,NULL,NULL,savaş,0,6095
1496692132,5f3652d47a7f41e2c2ee43d41b3c6f6d,Question,32,1,p,NULL,NULL,kahveleri,0,3451
1496692132,5f3652d47a7f41e2c2ee43d41b3c6f6d,Question,30,1,p,NULL,NULL,arayacak,0,5721
1496692132,5f3652d47a7f41e2c2ee43d41b3c6f6d,Question,31,1,p,NULL,NULL,mi,1,3461
# The lines below this comment are in groups of 2.
# The formats of the lines in each of these groups are as follows:
#
# Line 1:
#     Col. 1: Time results were received.
#     Col. 2: MD5 hash of participant's IP address.
#     Col. 3: Controller name.
#     Col. 4: Item number.
#     Col. 5: Element number.
#     Col. 6: Type.
#     Col. 7: Group.
#     Col. 8: Field name.
#     Col. 9: Field value.
# Line 2:
#     Col. 1: Time results were received.
#     Col. 2: MD5 hash of participant's IP address.
#     Col. 3: Controller name.
#     Col. 4: Item number.
#     Col. 5: Element number.
#     Col. 6: Type.
#     Col. 7: Group.
#     Col. 8: Question (NULL if none).
#     Col. 9: Answer.
#     Col. 10: Whether or not answer was correct (NULL if N/A).
#     Col. 11: Time taken to answer.
1496692132,5f3652d47a7f41e2c2ee43d41b3c6f6d,Form,5,0,devam,NULL,_REACTION_TIME_,5055
1496692132,5f3652d47a7f41e2c2ee43d41b3c6f6d,Question,7,1,e,NULL,NULL,sanıyor,1,6960
# Columns below this comment are as follows:
# 1. Time results were received.
# 2. MD5 hash of participant's IP address.
# 3. Controller name.
# 4. Item number.
# 5. Element number.
# 6. Type.
# 7. Group.
# 8. Question (NULL if none).
# 9. Answer.
# 10. Whether or not answer was correct (NULL if N/A).
# 11. Time taken to answer.
1496692132,5f3652d47a7f41e2c2ee43d41b3c6f6d,Question,12,1,e,NULL,NULL,düşünüyor,0,2502
1496692132,5f3652d47a7f41e2c2ee43d41b3c6f6d,Question,23,1,f,NULL,NULL,gördü,1,5469
1496692132,5f3652d47a7f41e2c2ee43d41b3c6f6d,Question,10,1,e,NULL,NULL,düşünüyor,1,3363
1496692132,5f3652d47a7f41e2c2ee43d41b3c6f6d,Question,22,1,f,NULL,NULL,özledi,1,5467
1496692132,5f3652d47a7f41e2c2ee43d41b3c6f6d,Question,16,1,e,NULL,NULL,hatırlıyor,1,4607
1496692132,5f3652d47a7f41e2c2ee43d41b3c6f6d,Question,25,1,f,NULL,NULL,fark etti,1,4395
1496692132,5f3652d47a7f41e2c2ee43d41b3c6f6d,Question,15,1,e,NULL,NULL,biliyor,0,4793
1496692132,5f3652d47a7f41e2c2ee43d41b3c6f6d,Question,21,1,f,NULL,NULL,özledi,0,7706
1496692132,5f3652d47a7f41e2c2ee43d41b3c6f6d,Question,9,1,e,NULL,NULL,sanıyor,0,7478
1496692132,5f3652d47a7f41e2c2ee43d41b3c6f6d,Question,26,1,f,NULL,NULL,fark etti,0,3634
1496692132,5f3652d47a7f41e2c2ee43d41b3c6f6d,Question,11,1,e,NULL,NULL,biliyor,0,3794
1496692132,5f3652d47a7f41e2c2ee43d41b3c6f6d,Question,14,1,e,NULL,NULL,düşünüyor,1,4979
1496692132,5f3652d47a7f41e2c2ee43d41b3c6f6d,Question,28,1,f,NULL,NULL,fark etti,0,6651
1496692132,5f3652d47a7f41e2c2ee43d41b3c6f6d,Question,8,1,e,NULL,NULL,düşünüyor,0,5838
1496692132,5f3652d47a7f41e2c2ee43d41b3c6f6d,Question,19,1,f,NULL,NULL,özledi,0,8005
1496692132,5f3652d47a7f41e2c2ee43d41b3c6f6d,Question,18,1,e,NULL,NULL,düşünüyor,1,4198
1496692132,5f3652d47a7f41e2c2ee43d41b3c6f6d,Question,24,1,f,NULL,NULL,fark etti,0,8523
1496692132,5f3652d47a7f41e2c2ee43d41b3c6f6d,Question,17,1,e,NULL,NULL,sanıyor,0,14123
1496692132,5f3652d47a7f41e2c2ee43d41b3c6f6d,Question,27,1,f,NULL,NULL,fark etti,1,4360
1496692132,5f3652d47a7f41e2c2ee43d41b3c6f6d,Question,13,1,e,NULL,NULL,biliyor,1,2879
1496692132,5f3652d47a7f41e2c2ee43d41b3c6f6d,Question,20,1,f,NULL,NULL,gördü,0,3440
# The lines below this comment are in groups of 2.
# The formats of the lines in each of these groups are as follows:
#
# Line 1:
#     Col. 1: Time results were received.
#     Col. 2: MD5 hash of participant's IP address.
#     Col. 3: Controller name.
#     Col. 4: Item number.
#     Col. 5: Element number.
#     Col. 6: Type.
#     Col. 7: Group.
#     Col. 8: Field name.
#     Col. 9: Field value.
# Line 2:
#     Col. 1: Time results were received.
#     Col. 2: MD5 hash of participant's IP address.
#     Col. 3: Controller name.
#     Col. 4: Item number.
#     Col. 5: Element number.
#     Col. 6: Type.
#     Col. 7: Group.
#     Col. 8: Question (NULL if none).
#     Col. 9: Answer.
#     Col. 10: Whether or not answer was correct (NULL if N/A).
#     Col. 11: Time taken to answer.
1496692132,5f3652d47a7f41e2c2ee43d41b3c6f6d,Form,6,0,son,NULL,_REACTION_TIME_,23855
1496692132,5f3652d47a7f41e2c2ee43d41b3c6f6d,Question,33,1,n,NULL,NULL,Ayşe'nin düşüncesi 'yağmur yağmıyor' şeklinde.,1,9661
# Columns below this comment are as follows:
# 1. Time results were received.
# 2. MD5 hash of participant's IP address.
# 3. Controller name.
# 4. Item number.
# 5. Element number.
# 6. Type.
# 7. Group.
# 8. Question (NULL if none).
# 9. Answer.
# 10. Whether or not answer was correct (NULL if N/A).
# 11. Time taken to answer.
1496692132,5f3652d47a7f41e2c2ee43d41b3c6f6d,Question,36,1,c,NULL,NULL,Referandumu yüzde yüzle kazanmış.,1,8026
1496692132,5f3652d47a7f41e2c2ee43d41b3c6f6d,Question,34,1,n,NULL,NULL,Başkanın düşüncesi 'ortak bir karara varmak zor olmayacak' şeklinde.,1,9069
1496692132,5f3652d47a7f41e2c2ee43d41b3c6f6d,Question,35,1,c,NULL,NULL,Öğretmen Paris'te yaşamış.,1,18664
#
# Results on Monday June 05 2017 20:46:55 UTC.
# USER AGENT: Mozilla/5.0 (Windows NT 10.0; Win64; x64) AppleWebKit/537.36 (KHTML, like Gecko) Chrome/58.0.3029.110 Safari/537.36
# Design number was non-random = 6
#
# Columns below this comment are as follows:
# 1. Time results were received.
# 2. MD5 hash of participant's IP address.
# 3. Controller name.
# 4. Item number.
# 5. Element number.
# 6. Type.
# 7. Group.
# 8. Field name.
# 9. Field value.
1496695615,8ae49d92c34ad3f59d927ed6c4662dc3,Form,2,0,intro,NULL,name,GM
1496695615,8ae49d92c34ad3f59d927ed6c4662dc3,Form,2,0,intro,NULL,age,30
1496695615,8ae49d92c34ad3f59d927ed6c4662dc3,Form,2,0,intro,NULL,anadil,yes
1496695615,8ae49d92c34ad3f59d927ed6c4662dc3,Form,2,0,intro,NULL,_REACTION_TIME_,36784
1496695615,8ae49d92c34ad3f59d927ed6c4662dc3,Form,3,0,intro,NULL,_REACTION_TIME_,21560
1496695615,8ae49d92c34ad3f59d927ed6c4662dc3,Form,4,0,intro,NULL,_REACTION_TIME_,10121
# Columns below this comment are as follows:
# 1. Time results were received.
# 2. MD5 hash of participant's IP address.
# 3. Controller name.
# 4. Item number.
# 5. Element number.
# 6. Type.
# 7. Group.
# 8. Question (NULL if none).
# 9. Answer.
# 10. Whether or not answer was correct (NULL if N/A).
# 11. Time taken to answer.
1496695615,8ae49d92c34ad3f59d927ed6c4662dc3,Question,29,1,p,NULL,NULL,savaş,0,4749
1496695615,8ae49d92c34ad3f59d927ed6c4662dc3,Question,30,1,p,NULL,NULL,arayacak,0,3017
1496695615,8ae49d92c34ad3f59d927ed6c4662dc3,Question,31,1,p,NULL,NULL,mi,1,1851
1496695615,8ae49d92c34ad3f59d927ed6c4662dc3,Question,32,1,p,NULL,NULL,kahveleri,0,1160
# The lines below this comment are in groups of 2.
# The formats of the lines in each of these groups are as follows:
#
# Line 1:
#     Col. 1: Time results were received.
#     Col. 2: MD5 hash of participant's IP address.
#     Col. 3: Controller name.
#     Col. 4: Item number.
#     Col. 5: Element number.
#     Col. 6: Type.
#     Col. 7: Group.
#     Col. 8: Field name.
#     Col. 9: Field value.
# Line 2:
#     Col. 1: Time results were received.
#     Col. 2: MD5 hash of participant's IP address.
#     Col. 3: Controller name.
#     Col. 4: Item number.
#     Col. 5: Element number.
#     Col. 6: Type.
#     Col. 7: Group.
#     Col. 8: Question (NULL if none).
#     Col. 9: Answer.
#     Col. 10: Whether or not answer was correct (NULL if N/A).
#     Col. 11: Time taken to answer.
1496695615,8ae49d92c34ad3f59d927ed6c4662dc3,Form,5,0,devam,NULL,_REACTION_TIME_,3052
1496695615,8ae49d92c34ad3f59d927ed6c4662dc3,Question,12,1,e,NULL,NULL,düşünüyor,0,2192
# Columns below this comment are as follows:
# 1. Time results were received.
# 2. MD5 hash of participant's IP address.
# 3. Controller name.
# 4. Item number.
# 5. Element number.
# 6. Type.
# 7. Group.
# 8. Question (NULL if none).
# 9. Answer.
# 10. Whether or not answer was correct (NULL if N/A).
# 11. Time taken to answer.
1496695615,8ae49d92c34ad3f59d927ed6c4662dc3,Question,18,1,e,NULL,NULL,düşünüyor,1,3038
1496695615,8ae49d92c34ad3f59d927ed6c4662dc3,Question,22,1,f,NULL,NULL,gördü,0,2637
1496695615,8ae49d92c34ad3f59d927ed6c4662dc3,Question,10,1,e,NULL,NULL,düşünüyor,1,2227
1496695615,8ae49d92c34ad3f59d927ed6c4662dc3,Question,24,1,f,NULL,NULL,fark etti,0,2950
1496695615,8ae49d92c34ad3f59d927ed6c4662dc3,Question,17,1,e,NULL,NULL,sanıyor,0,1721
1496695615,8ae49d92c34ad3f59d927ed6c4662dc3,Question,19,1,f,NULL,NULL,özledi,0,2100
1496695615,8ae49d92c34ad3f59d927ed6c4662dc3,Question,14,1,e,NULL,NULL,düşünüyor,1,3056
1496695615,8ae49d92c34ad3f59d927ed6c4662dc3,Question,28,1,f,NULL,NULL,fark etti,0,2167
1496695615,8ae49d92c34ad3f59d927ed6c4662dc3,Question,7,1,e,NULL,NULL,sanıyor,1,4539
1496695615,8ae49d92c34ad3f59d927ed6c4662dc3,Question,21,1,f,NULL,NULL,özledi,0,3531
1496695615,8ae49d92c34ad3f59d927ed6c4662dc3,Question,9,1,e,NULL,NULL,sanıyor,0,2783
1496695615,8ae49d92c34ad3f59d927ed6c4662dc3,Question,15,1,e,NULL,NULL,sanıyor,1,2436
1496695615,8ae49d92c34ad3f59d927ed6c4662dc3,Question,25,1,f,NULL,NULL,fark etti,1,1803
1496695615,8ae49d92c34ad3f59d927ed6c4662dc3,Question,8,1,e,NULL,NULL,düşünüyor,0,2326
1496695615,8ae49d92c34ad3f59d927ed6c4662dc3,Question,27,1,f,NULL,NULL,fark etti,1,1586
1496695615,8ae49d92c34ad3f59d927ed6c4662dc3,Question,11,1,e,NULL,NULL,biliyor,0,2914
1496695615,8ae49d92c34ad3f59d927ed6c4662dc3,Question,20,1,f,NULL,NULL,gördü,0,2254
1496695615,8ae49d92c34ad3f59d927ed6c4662dc3,Question,13,1,e,NULL,NULL,sanıyor,0,1385
1496695615,8ae49d92c34ad3f59d927ed6c4662dc3,Question,23,1,f,NULL,NULL,gördü,1,3529
1496695615,8ae49d92c34ad3f59d927ed6c4662dc3,Question,16,1,e,NULL,NULL,düşünüyor,0,2162
1496695615,8ae49d92c34ad3f59d927ed6c4662dc3,Question,26,1,f,NULL,NULL,unuttu,1,4169
# The lines below this comment are in groups of 2.
# The formats of the lines in each of these groups are as follows:
#
# Line 1:
#     Col. 1: Time results were received.
#     Col. 2: MD5 hash of participant's IP address.
#     Col. 3: Controller name.
#     Col. 4: Item number.
#     Col. 5: Element number.
#     Col. 6: Type.
#     Col. 7: Group.
#     Col. 8: Field name.
#     Col. 9: Field value.
# Line 2:
#     Col. 1: Time results were received.
#     Col. 2: MD5 hash of participant's IP address.
#     Col. 3: Controller name.
#     Col. 4: Item number.
#     Col. 5: Element number.
#     Col. 6: Type.
#     Col. 7: Group.
#     Col. 8: Question (NULL if none).
#     Col. 9: Answer.
#     Col. 10: Whether or not answer was correct (NULL if N/A).
#     Col. 11: Time taken to answer.
1496695615,8ae49d92c34ad3f59d927ed6c4662dc3,Form,6,0,son,NULL,_REACTION_TIME_,10397
1496695615,8ae49d92c34ad3f59d927ed6c4662dc3,Question,34,1,n,NULL,NULL,Başkanın düşüncesi 'ortak bir karara varmak zor olmayacak' şeklinde.,1,8571
# Columns below this comment are as follows:
# 1. Time results were received.
# 2. MD5 hash of participant's IP address.
# 3. Controller name.
# 4. Item number.
# 5. Element number.
# 6. Type.
# 7. Group.
# 8. Question (NULL if none).
# 9. Answer.
# 10. Whether or not answer was correct (NULL if N/A).
# 11. Time taken to answer.
1496695615,8ae49d92c34ad3f59d927ed6c4662dc3,Question,35,1,c,NULL,NULL,Öğretmen Paris'te yaşamış.,1,4392
1496695615,8ae49d92c34ad3f59d927ed6c4662dc3,Question,33,1,n,NULL,NULL,Ayşe'nin düşüncesi 'yağmur yağıyor' şeklinde değil.,0,5391
1496695615,8ae49d92c34ad3f59d927ed6c4662dc3,Question,36,1,c,NULL,NULL,Referandumu yüzde yüzle kazanmış.,1,3972
#
# Results on Monday June 05 2017 21:42:12 UTC.
# USER AGENT: Mozilla/5.0 (Windows NT 10.0; Win64; x64) AppleWebKit/537.36 (KHTML, like Gecko) Chrome/58.0.3029.110 Safari/537.36
# Design number was non-random = 7
#
# Columns below this comment are as follows:
# 1. Time results were received.
# 2. MD5 hash of participant's IP address.
# 3. Controller name.
# 4. Item number.
# 5. Element number.
# 6. Type.
# 7. Group.
# 8. Field name.
# 9. Field value.
1496698932,348a2ded11bec7c47ced72e827c70526,Form,2,0,intro,NULL,name,RTK
1496698932,348a2ded11bec7c47ced72e827c70526,Form,2,0,intro,NULL,age,24
1496698932,348a2ded11bec7c47ced72e827c70526,Form,2,0,intro,NULL,anadil,yes
1496698932,348a2ded11bec7c47ced72e827c70526,Form,2,0,intro,NULL,_REACTION_TIME_,41579
1496698932,348a2ded11bec7c47ced72e827c70526,Form,3,0,intro,NULL,_REACTION_TIME_,30385
1496698932,348a2ded11bec7c47ced72e827c70526,Form,4,0,intro,NULL,_REACTION_TIME_,5959
# Columns below this comment are as follows:
# 1. Time results were received.
# 2. MD5 hash of participant's IP address.
# 3. Controller name.
# 4. Item number.
# 5. Element number.
# 6. Type.
# 7. Group.
# 8. Question (NULL if none).
# 9. Answer.
# 10. Whether or not answer was correct (NULL if N/A).
# 11. Time taken to answer.
1496698932,348a2ded11bec7c47ced72e827c70526,Question,31,1,p,NULL,NULL,mi,1,4217
1496698932,348a2ded11bec7c47ced72e827c70526,Question,30,1,p,NULL,NULL,arayacak,0,6164
1496698932,348a2ded11bec7c47ced72e827c70526,Question,32,1,p,NULL,NULL,kahveleri,0,3274
1496698932,348a2ded11bec7c47ced72e827c70526,Question,29,1,p,NULL,NULL,savaş,0,6112
# The lines below this comment are in groups of 2.
# The formats of the lines in each of these groups are as follows:
#
# Line 1:
#     Col. 1: Time results were received.
#     Col. 2: MD5 hash of participant's IP address.
#     Col. 3: Controller name.
#     Col. 4: Item number.
#     Col. 5: Element number.
#     Col. 6: Type.
#     Col. 7: Group.
#     Col. 8: Field name.
#     Col. 9: Field value.
# Line 2:
#     Col. 1: Time results were received.
#     Col. 2: MD5 hash of participant's IP address.
#     Col. 3: Controller name.
#     Col. 4: Item number.
#     Col. 5: Element number.
#     Col. 6: Type.
#     Col. 7: Group.
#     Col. 8: Question (NULL if none).
#     Col. 9: Answer.
#     Col. 10: Whether or not answer was correct (NULL if N/A).
#     Col. 11: Time taken to answer.
1496698932,348a2ded11bec7c47ced72e827c70526,Form,5,0,devam,NULL,_REACTION_TIME_,2617
1496698932,348a2ded11bec7c47ced72e827c70526,Question,11,1,e,NULL,NULL,sanıyor,1,6291
# Columns below this comment are as follows:
# 1. Time results were received.
# 2. MD5 hash of participant's IP address.
# 3. Controller name.
# 4. Item number.
# 5. Element number.
# 6. Type.
# 7. Group.
# 8. Question (NULL if none).
# 9. Answer.
# 10. Whether or not answer was correct (NULL if N/A).
# 11. Time taken to answer.
1496698932,348a2ded11bec7c47ced72e827c70526,Question,24,1,f,NULL,NULL,fark etti,0,5715
1496698932,348a2ded11bec7c47ced72e827c70526,Question,14,1,e,NULL,NULL,düşünüyor,1,1781
1496698932,348a2ded11bec7c47ced72e827c70526,Question,23,1,f,NULL,NULL,gördü,1,3178
1496698932,348a2ded11bec7c47ced72e827c70526,Question,18,1,e,NULL,NULL,düşünüyor,1,1632
1496698932,348a2ded11bec7c47ced72e827c70526,Question,26,1,f,NULL,NULL,fark etti,0,1589
1496698932,348a2ded11bec7c47ced72e827c70526,Question,10,1,e,NULL,NULL,düşünüyor,1,2408
1496698932,348a2ded11bec7c47ced72e827c70526,Question,19,1,f,NULL,NULL,gördü,1,3425
1496698932,348a2ded11bec7c47ced72e827c70526,Question,9,1,e,NULL,NULL,sanıyor,0,6491
1496698932,348a2ded11bec7c47ced72e827c70526,Question,21,1,f,NULL,NULL,gördü,1,3048
1496698932,348a2ded11bec7c47ced72e827c70526,Question,15,1,e,NULL,NULL,sanıyor,1,3733
1496698932,348a2ded11bec7c47ced72e827c70526,Question,16,1,e,NULL,NULL,düşünüyor,0,1690
1496698932,348a2ded11bec7c47ced72e827c70526,Question,20,1,f,NULL,NULL,gördü,0,2424
1496698932,348a2ded11bec7c47ced72e827c70526,Question,13,1,e,NULL,NULL,biliyor,1,1793
1496698932,348a2ded11bec7c47ced72e827c70526,Question,22,1,f,NULL,NULL,gördü,0,1633
1496698932,348a2ded11bec7c47ced72e827c70526,Question,17,1,e,NULL,NULL,biliyor,1,2932
1496698932,348a2ded11bec7c47ced72e827c70526,Question,25,1,f,NULL,NULL,fark etti,1,2277
1496698932,348a2ded11bec7c47ced72e827c70526,Question,12,1,e,NULL,NULL,düşünüyor,0,1395
1496698932,348a2ded11bec7c47ced72e827c70526,Question,28,1,f,NULL,NULL,fark etti,0,2587
1496698932,348a2ded11bec7c47ced72e827c70526,Question,7,1,e,NULL,NULL,sanıyor,1,1806
1496698932,348a2ded11bec7c47ced72e827c70526,Question,27,1,f,NULL,NULL,unuttu,0,2408
1496698932,348a2ded11bec7c47ced72e827c70526,Question,8,1,e,NULL,NULL,hatırlıyor,1,2917
# The lines below this comment are in groups of 2.
# The formats of the lines in each of these groups are as follows:
#
# Line 1:
#     Col. 1: Time results were received.
#     Col. 2: MD5 hash of participant's IP address.
#     Col. 3: Controller name.
#     Col. 4: Item number.
#     Col. 5: Element number.
#     Col. 6: Type.
#     Col. 7: Group.
#     Col. 8: Field name.
#     Col. 9: Field value.
# Line 2:
#     Col. 1: Time results were received.
#     Col. 2: MD5 hash of participant's IP address.
#     Col. 3: Controller name.
#     Col. 4: Item number.
#     Col. 5: Element number.
#     Col. 6: Type.
#     Col. 7: Group.
#     Col. 8: Question (NULL if none).
#     Col. 9: Answer.
#     Col. 10: Whether or not answer was correct (NULL if N/A).
#     Col. 11: Time taken to answer.
1496698932,348a2ded11bec7c47ced72e827c70526,Form,6,0,son,NULL,_REACTION_TIME_,12446
1496698932,348a2ded11bec7c47ced72e827c70526,Question,36,1,c,NULL,NULL,Referandumu yüzde yüzle kazanmış.,1,7289
# Columns below this comment are as follows:
# 1. Time results were received.
# 2. MD5 hash of participant's IP address.
# 3. Controller name.
# 4. Item number.
# 5. Element number.
# 6. Type.
# 7. Group.
# 8. Question (NULL if none).
# 9. Answer.
# 10. Whether or not answer was correct (NULL if N/A).
# 11. Time taken to answer.
1496698932,348a2ded11bec7c47ced72e827c70526,Question,33,1,n,NULL,NULL,Ayşe'nin düşüncesi 'yağmur yağmıyor' şeklinde.,1,7416
1496698932,348a2ded11bec7c47ced72e827c70526,Question,35,1,c,NULL,NULL,Öğretmen Paris'te yaşamamış olabilir.,0,4216
1496698932,348a2ded11bec7c47ced72e827c70526,Question,34,1,n,NULL,NULL,Başkanın düşüncesi 'ortak bir karara varmak zor olmayacak' şeklinde.,1,6763
#
# Results on Monday June 05 2017 21:42:12 UTC.
# USER AGENT: Mozilla/5.0 (Macintosh; Intel Mac OS X 10_12_4) AppleWebKit/603.1.30 (KHTML, like Gecko) Version/10.1 Safari/603.1.30
# Design number was non-random = 7
#
# Columns below this comment are as follows:
# 1. Time results were received.
# 2. MD5 hash of participant's IP address.
# 3. Controller name.
# 4. Item number.
# 5. Element number.
# 6. Type.
# 7. Group.
# 8. Field name.
# 9. Field value.
1496698933,fdc14c27935f610a2d8aabb86001341a,Form,2,0,intro,NULL,name,Bİ
1496698933,fdc14c27935f610a2d8aabb86001341a,Form,2,0,intro,NULL,age,47
1496698933,fdc14c27935f610a2d8aabb86001341a,Form,2,0,intro,NULL,anadil,yes
1496698933,fdc14c27935f610a2d8aabb86001341a,Form,2,0,intro,NULL,_REACTION_TIME_,12621
1496698933,fdc14c27935f610a2d8aabb86001341a,Form,3,0,intro,NULL,_REACTION_TIME_,134100
1496698933,fdc14c27935f610a2d8aabb86001341a,Form,4,0,intro,NULL,_REACTION_TIME_,4907
# Columns below this comment are as follows:
# 1. Time results were received.
# 2. MD5 hash of participant's IP address.
# 3. Controller name.
# 4. Item number.
# 5. Element number.
# 6. Type.
# 7. Group.
# 8. Question (NULL if none).
# 9. Answer.
# 10. Whether or not answer was correct (NULL if N/A).
# 11. Time taken to answer.
1496698933,fdc14c27935f610a2d8aabb86001341a,Question,30,1,p,NULL,NULL,kaçırdı,1,5409
1496698933,fdc14c27935f610a2d8aabb86001341a,Question,29,1,p,NULL,NULL,barış,1,2568
1496698933,fdc14c27935f610a2d8aabb86001341a,Question,31,1,p,NULL,NULL,mi,1,1566
1496698933,fdc14c27935f610a2d8aabb86001341a,Question,32,1,p,NULL,NULL,kahveleri,0,5803
# The lines below this comment are in groups of 2.
# The formats of the lines in each of these groups are as follows:
#
# Line 1:
#     Col. 1: Time results were received.
#     Col. 2: MD5 hash of participant's IP address.
#     Col. 3: Controller name.
#     Col. 4: Item number.
#     Col. 5: Element number.
#     Col. 6: Type.
#     Col. 7: Group.
#     Col. 8: Field name.
#     Col. 9: Field value.
# Line 2:
#     Col. 1: Time results were received.
#     Col. 2: MD5 hash of participant's IP address.
#     Col. 3: Controller name.
#     Col. 4: Item number.
#     Col. 5: Element number.
#     Col. 6: Type.
#     Col. 7: Group.
#     Col. 8: Question (NULL if none).
#     Col. 9: Answer.
#     Col. 10: Whether or not answer was correct (NULL if N/A).
#     Col. 11: Time taken to answer.
1496698933,fdc14c27935f610a2d8aabb86001341a,Form,5,0,devam,NULL,_REACTION_TIME_,2557
1496698933,fdc14c27935f610a2d8aabb86001341a,Question,7,1,e,NULL,NULL,sanıyor,1,4294
# Columns below this comment are as follows:
# 1. Time results were received.
# 2. MD5 hash of participant's IP address.
# 3. Controller name.
# 4. Item number.
# 5. Element number.
# 6. Type.
# 7. Group.
# 8. Question (NULL if none).
# 9. Answer.
# 10. Whether or not answer was correct (NULL if N/A).
# 11. Time taken to answer.
1496698933,fdc14c27935f610a2d8aabb86001341a,Question,28,1,f,NULL,NULL,fark etti,0,4158
1496698933,fdc14c27935f610a2d8aabb86001341a,Question,11,1,e,NULL,NULL,sanıyor,1,6825
1496698933,fdc14c27935f610a2d8aabb86001341a,Question,23,1,f,NULL,NULL,gördü,1,8978
1496698933,fdc14c27935f610a2d8aabb86001341a,Question,8,1,e,NULL,NULL,düşünüyor,0,1476
1496698933,fdc14c27935f610a2d8aabb86001341a,Question,19,1,f,NULL,NULL,özledi,0,1682
1496698933,fdc14c27935f610a2d8aabb86001341a,Question,14,1,e,NULL,NULL,düşünüyor,1,1930
1496698933,fdc14c27935f610a2d8aabb86001341a,Question,21,1,f,NULL,NULL,gördü,1,3223
1496698933,fdc14c27935f610a2d8aabb86001341a,Question,16,1,e,NULL,NULL,düşünüyor,0,1269
1496698933,fdc14c27935f610a2d8aabb86001341a,Question,22,1,f,NULL,NULL,gördü,0,2148
1496698933,fdc14c27935f610a2d8aabb86001341a,Question,17,1,e,NULL,NULL,biliyor,1,4870
1496698933,fdc14c27935f610a2d8aabb86001341a,Question,13,1,e,NULL,NULL,biliyor,1,1017
1496698933,fdc14c27935f610a2d8aabb86001341a,Question,20,1,f,NULL,NULL,gördü,0,1569
1496698933,fdc14c27935f610a2d8aabb86001341a,Question,12,1,e,NULL,NULL,düşünüyor,0,2275
1496698933,fdc14c27935f610a2d8aabb86001341a,Question,26,1,f,NULL,NULL,fark etti,0,1954
1496698933,fdc14c27935f610a2d8aabb86001341a,Question,15,1,e,NULL,NULL,biliyor,0,1584
1496698933,fdc14c27935f610a2d8aabb86001341a,Question,24,1,f,NULL,NULL,fark etti,0,1037
1496698933,fdc14c27935f610a2d8aabb86001341a,Question,10,1,e,NULL,NULL,düşünüyor,1,949
1496698933,fdc14c27935f610a2d8aabb86001341a,Question,27,1,f,NULL,NULL,fark etti,1,994
1496698933,fdc14c27935f610a2d8aabb86001341a,Question,18,1,e,NULL,NULL,düşünüyor,1,1646
1496698933,fdc14c27935f610a2d8aabb86001341a,Question,25,1,f,NULL,NULL,fark etti,1,2266
1496698933,fdc14c27935f610a2d8aabb86001341a,Question,9,1,e,NULL,NULL,biliyor,1,1583
# The lines below this comment are in groups of 2.
# The formats of the lines in each of these groups are as follows:
#
# Line 1:
#     Col. 1: Time results were received.
#     Col. 2: MD5 hash of participant's IP address.
#     Col. 3: Controller name.
#     Col. 4: Item number.
#     Col. 5: Element number.
#     Col. 6: Type.
#     Col. 7: Group.
#     Col. 8: Field name.
#     Col. 9: Field value.
# Line 2:
#     Col. 1: Time results were received.
#     Col. 2: MD5 hash of participant's IP address.
#     Col. 3: Controller name.
#     Col. 4: Item number.
#     Col. 5: Element number.
#     Col. 6: Type.
#     Col. 7: Group.
#     Col. 8: Question (NULL if none).
#     Col. 9: Answer.
#     Col. 10: Whether or not answer was correct (NULL if N/A).
#     Col. 11: Time taken to answer.
1496698933,fdc14c27935f610a2d8aabb86001341a,Form,6,0,son,NULL,_REACTION_TIME_,8423
1496698933,fdc14c27935f610a2d8aabb86001341a,Question,34,1,n,NULL,NULL,Başkanın düşüncesi 'ortak bir karara varmak zor olmayacak' şeklinde.,1,17539
# Columns below this comment are as follows:
# 1. Time results were received.
# 2. MD5 hash of participant's IP address.
# 3. Controller name.
# 4. Item number.
# 5. Element number.
# 6. Type.
# 7. Group.
# 8. Question (NULL if none).
# 9. Answer.
# 10. Whether or not answer was correct (NULL if N/A).
# 11. Time taken to answer.
1496698933,fdc14c27935f610a2d8aabb86001341a,Question,35,1,c,NULL,NULL,Öğretmen Paris'te yaşamış.,1,3217
1496698933,fdc14c27935f610a2d8aabb86001341a,Question,33,1,n,NULL,NULL,Ayşe'nin düşüncesi 'yağmur yağmıyor' şeklinde.,1,3550
1496698933,fdc14c27935f610a2d8aabb86001341a,Question,36,1,c,NULL,NULL,Referandumu yüzde yüzle kazanmış.,1,5372
#
# Results on Monday June 05 2017 23:42:30 UTC.
# USER AGENT: Mozilla/5.0 (Windows NT 6.1) AppleWebKit/537.36 (KHTML, like Gecko) Chrome/58.0.3029.110 Safari/537.36
# Design number was non-random = 9
#
# Columns below this comment are as follows:
# 1. Time results were received.
# 2. MD5 hash of participant's IP address.
# 3. Controller name.
# 4. Item number.
# 5. Element number.
# 6. Type.
# 7. Group.
# 8. Field name.
# 9. Field value.
1496706151,9462c86b5b539d45742686387ca5334a,Form,2,0,intro,NULL,name,ST
1496706151,9462c86b5b539d45742686387ca5334a,Form,2,0,intro,NULL,age,36
1496706151,9462c86b5b539d45742686387ca5334a,Form,2,0,intro,NULL,anadil,yes
1496706151,9462c86b5b539d45742686387ca5334a,Form,2,0,intro,NULL,_REACTION_TIME_,25592
1496706151,9462c86b5b539d45742686387ca5334a,Form,3,0,intro,NULL,_REACTION_TIME_,24466
1496706151,9462c86b5b539d45742686387ca5334a,Form,4,0,intro,NULL,_REACTION_TIME_,3779
# Columns below this comment are as follows:
# 1. Time results were received.
# 2. MD5 hash of participant's IP address.
# 3. Controller name.
# 4. Item number.
# 5. Element number.
# 6. Type.
# 7. Group.
# 8. Question (NULL if none).
# 9. Answer.
# 10. Whether or not answer was correct (NULL if N/A).
# 11. Time taken to answer.
1496706151,9462c86b5b539d45742686387ca5334a,Question,30,1,p,NULL,NULL,arayacak,0,6155
1496706151,9462c86b5b539d45742686387ca5334a,Question,32,1,p,NULL,NULL,kahveleri,0,2097
1496706151,9462c86b5b539d45742686387ca5334a,Question,31,1,p,NULL,NULL,mi,1,1887
1496706151,9462c86b5b539d45742686387ca5334a,Question,29,1,p,NULL,NULL,savaş,0,2443
# The lines below this comment are in groups of 2.
# The formats of the lines in each of these groups are as follows:
#
# Line 1:
#     Col. 1: Time results were received.
#     Col. 2: MD5 hash of participant's IP address.
#     Col. 3: Controller name.
#     Col. 4: Item number.
#     Col. 5: Element number.
#     Col. 6: Type.
#     Col. 7: Group.
#     Col. 8: Field name.
#     Col. 9: Field value.
# Line 2:
#     Col. 1: Time results were received.
#     Col. 2: MD5 hash of participant's IP address.
#     Col. 3: Controller name.
#     Col. 4: Item number.
#     Col. 5: Element number.
#     Col. 6: Type.
#     Col. 7: Group.
#     Col. 8: Question (NULL if none).
#     Col. 9: Answer.
#     Col. 10: Whether or not answer was correct (NULL if N/A).
#     Col. 11: Time taken to answer.
1496706151,9462c86b5b539d45742686387ca5334a,Form,5,0,devam,NULL,_REACTION_TIME_,2581
1496706151,9462c86b5b539d45742686387ca5334a,Question,8,1,e,NULL,NULL,düşünüyor,0,1757
# Columns below this comment are as follows:
# 1. Time results were received.
# 2. MD5 hash of participant's IP address.
# 3. Controller name.
# 4. Item number.
# 5. Element number.
# 6. Type.
# 7. Group.
# 8. Question (NULL if none).
# 9. Answer.
# 10. Whether or not answer was correct (NULL if N/A).
# 11. Time taken to answer.
1496706151,9462c86b5b539d45742686387ca5334a,Question,21,1,f,NULL,NULL,gördü,1,1803
1496706151,9462c86b5b539d45742686387ca5334a,Question,16,1,e,NULL,NULL,düşünüyor,0,1290
1496706151,9462c86b5b539d45742686387ca5334a,Question,23,1,f,NULL,NULL,gördü,1,2323
1496706151,9462c86b5b539d45742686387ca5334a,Question,11,1,e,NULL,NULL,biliyor,0,1709
1496706151,9462c86b5b539d45742686387ca5334a,Question,22,1,f,NULL,NULL,gördü,0,1813
1496706151,9462c86b5b539d45742686387ca5334a,Question,7,1,e,NULL,NULL,biliyor,0,1812
1496706151,9462c86b5b539d45742686387ca5334a,Question,19,1,f,NULL,NULL,özledi,0,2286
1496706151,9462c86b5b539d45742686387ca5334a,Question,13,1,e,NULL,NULL,biliyor,1,2883
1496706151,9462c86b5b539d45742686387ca5334a,Question,24,1,f,NULL,NULL,fark etti,0,2279
1496706151,9462c86b5b539d45742686387ca5334a,Question,18,1,e,NULL,NULL,düşünüyor,1,1518
1496706151,9462c86b5b539d45742686387ca5334a,Question,17,1,e,NULL,NULL,biliyor,1,1690
1496706151,9462c86b5b539d45742686387ca5334a,Question,26,1,f,NULL,NULL,fark etti,0,1733
1496706151,9462c86b5b539d45742686387ca5334a,Question,9,1,e,NULL,NULL,sanıyor,0,2163
1496706151,9462c86b5b539d45742686387ca5334a,Question,25,1,f,NULL,NULL,fark etti,1,1197
1496706151,9462c86b5b539d45742686387ca5334a,Question,15,1,e,NULL,NULL,biliyor,0,1926
1496706151,9462c86b5b539d45742686387ca5334a,Question,27,1,f,NULL,NULL,fark etti,1,1647
1496706151,9462c86b5b539d45742686387ca5334a,Question,12,1,e,NULL,NULL,düşünüyor,0,2553
1496706151,9462c86b5b539d45742686387ca5334a,Question,20,1,f,NULL,NULL,gördü,0,3284
1496706151,9462c86b5b539d45742686387ca5334a,Question,10,1,e,NULL,NULL,düşünüyor,1,1872
1496706151,9462c86b5b539d45742686387ca5334a,Question,28,1,f,NULL,NULL,fark etti,0,1272
1496706151,9462c86b5b539d45742686387ca5334a,Question,14,1,e,NULL,NULL,düşünüyor,1,2219
# The lines below this comment are in groups of 2.
# The formats of the lines in each of these groups are as follows:
#
# Line 1:
#     Col. 1: Time results were received.
#     Col. 2: MD5 hash of participant's IP address.
#     Col. 3: Controller name.
#     Col. 4: Item number.
#     Col. 5: Element number.
#     Col. 6: Type.
#     Col. 7: Group.
#     Col. 8: Field name.
#     Col. 9: Field value.
# Line 2:
#     Col. 1: Time results were received.
#     Col. 2: MD5 hash of participant's IP address.
#     Col. 3: Controller name.
#     Col. 4: Item number.
#     Col. 5: Element number.
#     Col. 6: Type.
#     Col. 7: Group.
#     Col. 8: Question (NULL if none).
#     Col. 9: Answer.
#     Col. 10: Whether or not answer was correct (NULL if N/A).
#     Col. 11: Time taken to answer.
1496706151,9462c86b5b539d45742686387ca5334a,Form,6,0,son,NULL,_REACTION_TIME_,7916
1496706151,9462c86b5b539d45742686387ca5334a,Question,34,1,n,NULL,NULL,Başkanın düşüncesi 'ortak bir karara varmak zor olmayacak' şeklinde.,1,28079
# Columns below this comment are as follows:
# 1. Time results were received.
# 2. MD5 hash of participant's IP address.
# 3. Controller name.
# 4. Item number.
# 5. Element number.
# 6. Type.
# 7. Group.
# 8. Question (NULL if none).
# 9. Answer.
# 10. Whether or not answer was correct (NULL if N/A).
# 11. Time taken to answer.
1496706151,9462c86b5b539d45742686387ca5334a,Question,35,1,c,NULL,NULL,Öğretmen Paris'te yaşamamış olabilir.,0,7944
1496706151,9462c86b5b539d45742686387ca5334a,Question,33,1,n,NULL,NULL,Ayşe'nin düşüncesi 'yağmur yağmıyor' şeklinde.,1,6038
1496706151,9462c86b5b539d45742686387ca5334a,Question,36,1,c,NULL,NULL,Referandumu yüzde yüzle kazanmış.,1,7679
#
# Results on Tuesday June 06 2017 08:12:09 UTC.
# USER AGENT: Mozilla/5.0 (Macintosh; Intel Mac OS X 10_11_3) AppleWebKit/537.36 (KHTML, like Gecko) Chrome/58.0.3029.110 Safari/537.36
# Design number was non-random = 10
#
# Columns below this comment are as follows:
# 1. Time results were received.
# 2. MD5 hash of participant's IP address.
# 3. Controller name.
# 4. Item number.
# 5. Element number.
# 6. Type.
# 7. Group.
# 8. Field name.
# 9. Field value.
1496736729,998c638f7885dda0921717e372199ec1,Form,2,0,intro,NULL,name,SO
1496736729,998c638f7885dda0921717e372199ec1,Form,2,0,intro,NULL,age,27
1496736729,998c638f7885dda0921717e372199ec1,Form,2,0,intro,NULL,anadil,yes
1496736729,998c638f7885dda0921717e372199ec1,Form,2,0,intro,NULL,_REACTION_TIME_,23823
1496736729,998c638f7885dda0921717e372199ec1,Form,3,0,intro,NULL,_REACTION_TIME_,18727
1496736729,998c638f7885dda0921717e372199ec1,Form,4,0,intro,NULL,_REACTION_TIME_,2646
# Columns below this comment are as follows:
# 1. Time results were received.
# 2. MD5 hash of participant's IP address.
# 3. Controller name.
# 4. Item number.
# 5. Element number.
# 6. Type.
# 7. Group.
# 8. Question (NULL if none).
# 9. Answer.
# 10. Whether or not answer was correct (NULL if N/A).
# 11. Time taken to answer.
1496736729,998c638f7885dda0921717e372199ec1,Question,29,1,p,NULL,NULL,barış,1,2816
1496736729,998c638f7885dda0921717e372199ec1,Question,32,1,p,NULL,NULL,kahveleri,0,1903
1496736729,998c638f7885dda0921717e372199ec1,Question,30,1,p,NULL,NULL,kaçırdı,1,4154
1496736729,998c638f7885dda0921717e372199ec1,Question,31,1,p,NULL,NULL,mi,1,3597
# The lines below this comment are in groups of 2.
# The formats of the lines in each of these groups are as follows:
#
# Line 1:
#     Col. 1: Time results were received.
#     Col. 2: MD5 hash of participant's IP address.
#     Col. 3: Controller name.
#     Col. 4: Item number.
#     Col. 5: Element number.
#     Col. 6: Type.
#     Col. 7: Group.
#     Col. 8: Field name.
#     Col. 9: Field value.
# Line 2:
#     Col. 1: Time results were received.
#     Col. 2: MD5 hash of participant's IP address.
#     Col. 3: Controller name.
#     Col. 4: Item number.
#     Col. 5: Element number.
#     Col. 6: Type.
#     Col. 7: Group.
#     Col. 8: Question (NULL if none).
#     Col. 9: Answer.
#     Col. 10: Whether or not answer was correct (NULL if N/A).
#     Col. 11: Time taken to answer.
1496736729,998c638f7885dda0921717e372199ec1,Form,5,0,devam,NULL,_REACTION_TIME_,2120
1496736729,998c638f7885dda0921717e372199ec1,Question,14,1,e,NULL,NULL,düşünüyor,1,3754
# Columns below this comment are as follows:
# 1. Time results were received.
# 2. MD5 hash of participant's IP address.
# 3. Controller name.
# 4. Item number.
# 5. Element number.
# 6. Type.
# 7. Group.
# 8. Question (NULL if none).
# 9. Answer.
# 10. Whether or not answer was correct (NULL if N/A).
# 11. Time taken to answer.
1496736729,998c638f7885dda0921717e372199ec1,Question,17,1,e,NULL,NULL,sanıyor,0,12731
1496736729,998c638f7885dda0921717e372199ec1,Question,27,1,f,NULL,NULL,fark etti,1,4716
1496736729,998c638f7885dda0921717e372199ec1,Question,15,1,e,NULL,NULL,sanıyor,1,6798
1496736729,998c638f7885dda0921717e372199ec1,Question,24,1,f,NULL,NULL,unuttu,1,3885
1496736729,998c638f7885dda0921717e372199ec1,Question,12,1,e,NULL,NULL,düşünüyor,0,9279
1496736729,998c638f7885dda0921717e372199ec1,Question,26,1,f,NULL,NULL,fark etti,0,4425
1496736729,998c638f7885dda0921717e372199ec1,Question,9,1,e,NULL,NULL,sanıyor,0,2649
1496736729,998c638f7885dda0921717e372199ec1,Question,20,1,f,NULL,NULL,gördü,0,28407
1496736729,998c638f7885dda0921717e372199ec1,Question,11,1,e,NULL,NULL,biliyor,0,4172
1496736729,998c638f7885dda0921717e372199ec1,Question,22,1,f,NULL,NULL,gördü,0,3063
1496736729,998c638f7885dda0921717e372199ec1,Question,10,1,e,NULL,NULL,düşünüyor,1,5386
1496736729,998c638f7885dda0921717e372199ec1,Question,8,1,e,NULL,NULL,düşünüyor,0,3090
1496736729,998c638f7885dda0921717e372199ec1,Question,28,1,f,NULL,NULL,fark etti,0,5140
1496736729,998c638f7885dda0921717e372199ec1,Question,7,1,e,NULL,NULL,biliyor,0,4121
1496736729,998c638f7885dda0921717e372199ec1,Question,21,1,f,NULL,NULL,özledi,0,9459
1496736729,998c638f7885dda0921717e372199ec1,Question,13,1,e,NULL,NULL,biliyor,1,2687
1496736729,998c638f7885dda0921717e372199ec1,Question,25,1,f,NULL,NULL,fark etti,1,2465
1496736729,998c638f7885dda0921717e372199ec1,Question,16,1,e,NULL,NULL,düşünüyor,0,4401
1496736729,998c638f7885dda0921717e372199ec1,Question,19,1,f,NULL,NULL,özledi,0,3931
1496736729,998c638f7885dda0921717e372199ec1,Question,18,1,e,NULL,NULL,düşünüyor,1,2476
1496736729,998c638f7885dda0921717e372199ec1,Question,23,1,f,NULL,NULL,özledi,0,3769
# The lines below this comment are in groups of 2.
# The formats of the lines in each of these groups are as follows:
#
# Line 1:
#     Col. 1: Time results were received.
#     Col. 2: MD5 hash of participant's IP address.
#     Col. 3: Controller name.
#     Col. 4: Item number.
#     Col. 5: Element number.
#     Col. 6: Type.
#     Col. 7: Group.
#     Col. 8: Field name.
#     Col. 9: Field value.
# Line 2:
#     Col. 1: Time results were received.
#     Col. 2: MD5 hash of participant's IP address.
#     Col. 3: Controller name.
#     Col. 4: Item number.
#     Col. 5: Element number.
#     Col. 6: Type.
#     Col. 7: Group.
#     Col. 8: Question (NULL if none).
#     Col. 9: Answer.
#     Col. 10: Whether or not answer was correct (NULL if N/A).
#     Col. 11: Time taken to answer.
1496736729,998c638f7885dda0921717e372199ec1,Form,6,0,son,NULL,_REACTION_TIME_,7811
1496736729,998c638f7885dda0921717e372199ec1,Question,33,1,n,NULL,NULL,Ayşe'nin düşüncesi 'yağmur yağmıyor' şeklinde.,1,10146
# Columns below this comment are as follows:
# 1. Time results were received.
# 2. MD5 hash of participant's IP address.
# 3. Controller name.
# 4. Item number.
# 5. Element number.
# 6. Type.
# 7. Group.
# 8. Question (NULL if none).
# 9. Answer.
# 10. Whether or not answer was correct (NULL if N/A).
# 11. Time taken to answer.
1496736729,998c638f7885dda0921717e372199ec1,Question,35,1,c,NULL,NULL,Öğretmen Paris'te yaşamış.,1,4568
1496736729,998c638f7885dda0921717e372199ec1,Question,34,1,n,NULL,NULL,Başkanın düşüncesi 'ortak bir karara varmak zor olmayacak' şeklinde.,1,6489
1496736729,998c638f7885dda0921717e372199ec1,Question,36,1,c,NULL,NULL,Referandumu yüzde yüzle kazanmış.,1,6136
#
# Results on Tuesday June 06 2017 18:58:48 UTC.
# USER AGENT: Mozilla/5.0 (Windows NT 10.0; Win64; x64) AppleWebKit/537.36 (KHTML, like Gecko) Chrome/58.0.3029.110 Safari/537.36
# Design number was non-random = 11
#
# Columns below this comment are as follows:
# 1. Time results were received.
# 2. MD5 hash of participant's IP address.
# 3. Controller name.
# 4. Item number.
# 5. Element number.
# 6. Type.
# 7. Group.
# 8. Field name.
# 9. Field value.
1496775528,1b4a2cb9b2f8b923dbcb65dfb54c3407,Form,2,0,intro,NULL,name,KT
1496775528,1b4a2cb9b2f8b923dbcb65dfb54c3407,Form,2,0,intro,NULL,age,25
1496775528,1b4a2cb9b2f8b923dbcb65dfb54c3407,Form,2,0,intro,NULL,anadil,yes
1496775528,1b4a2cb9b2f8b923dbcb65dfb54c3407,Form,2,0,intro,NULL,_REACTION_TIME_,13935
1496775528,1b4a2cb9b2f8b923dbcb65dfb54c3407,Form,3,0,intro,NULL,_REACTION_TIME_,17198
1496775528,1b4a2cb9b2f8b923dbcb65dfb54c3407,Form,4,0,intro,NULL,_REACTION_TIME_,2887
# Columns below this comment are as follows:
# 1. Time results were received.
# 2. MD5 hash of participant's IP address.
# 3. Controller name.
# 4. Item number.
# 5. Element number.
# 6. Type.
# 7. Group.
# 8. Question (NULL if none).
# 9. Answer.
# 10. Whether or not answer was correct (NULL if N/A).
# 11. Time taken to answer.
1496775528,1b4a2cb9b2f8b923dbcb65dfb54c3407,Question,31,1,p,NULL,NULL,mi,1,3371
1496775528,1b4a2cb9b2f8b923dbcb65dfb54c3407,Question,32,1,p,NULL,NULL,kahveleri,0,5199
1496775528,1b4a2cb9b2f8b923dbcb65dfb54c3407,Question,29,1,p,NULL,NULL,barış,1,2201
1496775528,1b4a2cb9b2f8b923dbcb65dfb54c3407,Question,30,1,p,NULL,NULL,kaçırdı,1,1881
# The lines below this comment are in groups of 2.
# The formats of the lines in each of these groups are as follows:
#
# Line 1:
#     Col. 1: Time results were received.
#     Col. 2: MD5 hash of participant's IP address.
#     Col. 3: Controller name.
#     Col. 4: Item number.
#     Col. 5: Element number.
#     Col. 6: Type.
#     Col. 7: Group.
#     Col. 8: Field name.
#     Col. 9: Field value.
# Line 2:
#     Col. 1: Time results were received.
#     Col. 2: MD5 hash of participant's IP address.
#     Col. 3: Controller name.
#     Col. 4: Item number.
#     Col. 5: Element number.
#     Col. 6: Type.
#     Col. 7: Group.
#     Col. 8: Question (NULL if none).
#     Col. 9: Answer.
#     Col. 10: Whether or not answer was correct (NULL if N/A).
#     Col. 11: Time taken to answer.
1496775528,1b4a2cb9b2f8b923dbcb65dfb54c3407,Form,5,0,devam,NULL,_REACTION_TIME_,2208
1496775528,1b4a2cb9b2f8b923dbcb65dfb54c3407,Question,18,1,e,NULL,NULL,düşünüyor,1,1571
# Columns below this comment are as follows:
# 1. Time results were received.
# 2. MD5 hash of participant's IP address.
# 3. Controller name.
# 4. Item number.
# 5. Element number.
# 6. Type.
# 7. Group.
# 8. Question (NULL if none).
# 9. Answer.
# 10. Whether or not answer was correct (NULL if N/A).
# 11. Time taken to answer.
1496775528,1b4a2cb9b2f8b923dbcb65dfb54c3407,Question,27,1,f,NULL,NULL,fark etti,1,1598
1496775528,1b4a2cb9b2f8b923dbcb65dfb54c3407,Question,15,1,e,NULL,NULL,sanıyor,1,3888
1496775528,1b4a2cb9b2f8b923dbcb65dfb54c3407,Question,21,1,f,NULL,NULL,gördü,1,1554
1496775528,1b4a2cb9b2f8b923dbcb65dfb54c3407,Question,8,1,e,NULL,NULL,düşünüyor,0,1502
1496775528,1b4a2cb9b2f8b923dbcb65dfb54c3407,Question,24,1,f,NULL,NULL,fark etti,0,2170
1496775528,1b4a2cb9b2f8b923dbcb65dfb54c3407,Question,16,1,e,NULL,NULL,düşünüyor,0,916
1496775528,1b4a2cb9b2f8b923dbcb65dfb54c3407,Question,25,1,f,NULL,NULL,fark etti,1,1389
1496775528,1b4a2cb9b2f8b923dbcb65dfb54c3407,Question,11,1,e,NULL,NULL,sanıyor,1,1163
1496775528,1b4a2cb9b2f8b923dbcb65dfb54c3407,Question,28,1,f,NULL,NULL,fark etti,0,2013
1496775528,1b4a2cb9b2f8b923dbcb65dfb54c3407,Question,17,1,e,NULL,NULL,biliyor,1,1574
1496775528,1b4a2cb9b2f8b923dbcb65dfb54c3407,Question,7,1,e,NULL,NULL,sanıyor,1,1951
1496775528,1b4a2cb9b2f8b923dbcb65dfb54c3407,Question,23,1,f,NULL,NULL,özledi,0,2221
1496775528,1b4a2cb9b2f8b923dbcb65dfb54c3407,Question,14,1,e,NULL,NULL,düşünüyor,1,1729
1496775528,1b4a2cb9b2f8b923dbcb65dfb54c3407,Question,22,1,f,NULL,NULL,gördü,0,1495
1496775528,1b4a2cb9b2f8b923dbcb65dfb54c3407,Question,10,1,e,NULL,NULL,düşünüyor,1,1646
1496775528,1b4a2cb9b2f8b923dbcb65dfb54c3407,Question,19,1,f,NULL,NULL,gördü,1,2315
1496775528,1b4a2cb9b2f8b923dbcb65dfb54c3407,Question,12,1,e,NULL,NULL,düşünüyor,0,1574
1496775528,1b4a2cb9b2f8b923dbcb65dfb54c3407,Question,20,1,f,NULL,NULL,gördü,0,3073
1496775528,1b4a2cb9b2f8b923dbcb65dfb54c3407,Question,9,1,e,NULL,NULL,sanıyor,0,1731
1496775528,1b4a2cb9b2f8b923dbcb65dfb54c3407,Question,26,1,f,NULL,NULL,fark etti,0,3127
1496775528,1b4a2cb9b2f8b923dbcb65dfb54c3407,Question,13,1,e,NULL,NULL,sanıyor,0,1843
# The lines below this comment are in groups of 2.
# The formats of the lines in each of these groups are as follows:
#
# Line 1:
#     Col. 1: Time results were received.
#     Col. 2: MD5 hash of participant's IP address.
#     Col. 3: Controller name.
#     Col. 4: Item number.
#     Col. 5: Element number.
#     Col. 6: Type.
#     Col. 7: Group.
#     Col. 8: Field name.
#     Col. 9: Field value.
# Line 2:
#     Col. 1: Time results were received.
#     Col. 2: MD5 hash of participant's IP address.
#     Col. 3: Controller name.
#     Col. 4: Item number.
#     Col. 5: Element number.
#     Col. 6: Type.
#     Col. 7: Group.
#     Col. 8: Question (NULL if none).
#     Col. 9: Answer.
#     Col. 10: Whether or not answer was correct (NULL if N/A).
#     Col. 11: Time taken to answer.
1496775528,1b4a2cb9b2f8b923dbcb65dfb54c3407,Form,6,0,son,NULL,_REACTION_TIME_,7788
1496775528,1b4a2cb9b2f8b923dbcb65dfb54c3407,Question,33,1,n,NULL,NULL,Ayşe'nin düşüncesi 'yağmur yağmıyor' şeklinde.,1,3924
# Columns below this comment are as follows:
# 1. Time results were received.
# 2. MD5 hash of participant's IP address.
# 3. Controller name.
# 4. Item number.
# 5. Element number.
# 6. Type.
# 7. Group.
# 8. Question (NULL if none).
# 9. Answer.
# 10. Whether or not answer was correct (NULL if N/A).
# 11. Time taken to answer.
1496775528,1b4a2cb9b2f8b923dbcb65dfb54c3407,Question,36,1,c,NULL,NULL,Referandumu yüzde yüzle kazanmış.,1,3404
1496775528,1b4a2cb9b2f8b923dbcb65dfb54c3407,Question,34,1,n,NULL,NULL,Başkanın düşüncesi 'ortak bir karara varmak zor olmayacak' şeklinde.,1,2906
1496775528,1b4a2cb9b2f8b923dbcb65dfb54c3407,Question,35,1,c,NULL,NULL,Öğretmen Paris'te yaşamış.,1,1522
#
# Results on Wednesday June 07 2017 10:47:35 UTC.
# USER AGENT: Mozilla/5.0 (Windows NT 10.0; Win64; x64) AppleWebKit/537.36 (KHTML, like Gecko) Chrome/58.0.3029.110 Safari/537.36
# Design number was non-random = 12
#
# Columns below this comment are as follows:
# 1. Time results were received.
# 2. MD5 hash of participant's IP address.
# 3. Controller name.
# 4. Item number.
# 5. Element number.
# 6. Type.
# 7. Group.
# 8. Field name.
# 9. Field value.
1496832455,e0bfd2fbf81644dbf2868ab918c500cd,Form,2,0,intro,NULL,name,OY
1496832455,e0bfd2fbf81644dbf2868ab918c500cd,Form,2,0,intro,NULL,age,30
1496832455,e0bfd2fbf81644dbf2868ab918c500cd,Form,2,0,intro,NULL,anadil,yes
1496832455,e0bfd2fbf81644dbf2868ab918c500cd,Form,2,0,intro,NULL,_REACTION_TIME_,15216
1496832455,e0bfd2fbf81644dbf2868ab918c500cd,Form,3,0,intro,NULL,_REACTION_TIME_,22195
1496832455,e0bfd2fbf81644dbf2868ab918c500cd,Form,4,0,intro,NULL,_REACTION_TIME_,5652
# Columns below this comment are as follows:
# 1. Time results were received.
# 2. MD5 hash of participant's IP address.
# 3. Controller name.
# 4. Item number.
# 5. Element number.
# 6. Type.
# 7. Group.
# 8. Question (NULL if none).
# 9. Answer.
# 10. Whether or not answer was correct (NULL if N/A).
# 11. Time taken to answer.
1496832455,e0bfd2fbf81644dbf2868ab918c500cd,Question,31,1,p,NULL,NULL,mi,1,2629
1496832455,e0bfd2fbf81644dbf2868ab918c500cd,Question,32,1,p,NULL,NULL,kahveleri,0,3808
1496832455,e0bfd2fbf81644dbf2868ab918c500cd,Question,30,1,p,NULL,NULL,arayacak,0,2672
1496832455,e0bfd2fbf81644dbf2868ab918c500cd,Question,29,1,p,NULL,NULL,barış,1,2332
# The lines below this comment are in groups of 2.
# The formats of the lines in each of these groups are as follows:
#
# Line 1:
#     Col. 1: Time results were received.
#     Col. 2: MD5 hash of participant's IP address.
#     Col. 3: Controller name.
#     Col. 4: Item number.
#     Col. 5: Element number.
#     Col. 6: Type.
#     Col. 7: Group.
#     Col. 8: Field name.
#     Col. 9: Field value.
# Line 2:
#     Col. 1: Time results were received.
#     Col. 2: MD5 hash of participant's IP address.
#     Col. 3: Controller name.
#     Col. 4: Item number.
#     Col. 5: Element number.
#     Col. 6: Type.
#     Col. 7: Group.
#     Col. 8: Question (NULL if none).
#     Col. 9: Answer.
#     Col. 10: Whether or not answer was correct (NULL if N/A).
#     Col. 11: Time taken to answer.
1496832455,e0bfd2fbf81644dbf2868ab918c500cd,Form,5,0,devam,NULL,_REACTION_TIME_,3126
1496832455,e0bfd2fbf81644dbf2868ab918c500cd,Question,10,1,e,NULL,NULL,düşünüyor,1,2128
# Columns below this comment are as follows:
# 1. Time results were received.
# 2. MD5 hash of participant's IP address.
# 3. Controller name.
# 4. Item number.
# 5. Element number.
# 6. Type.
# 7. Group.
# 8. Question (NULL if none).
# 9. Answer.
# 10. Whether or not answer was correct (NULL if N/A).
# 11. Time taken to answer.
1496832455,e0bfd2fbf81644dbf2868ab918c500cd,Question,8,1,e,NULL,NULL,düşünüyor,0,2170
1496832455,e0bfd2fbf81644dbf2868ab918c500cd,Question,21,1,f,NULL,NULL,özledi,0,4414
1496832455,e0bfd2fbf81644dbf2868ab918c500cd,Question,18,1,e,NULL,NULL,düşünüyor,1,2957
1496832455,e0bfd2fbf81644dbf2868ab918c500cd,Question,28,1,f,NULL,NULL,fark etti,0,1804
1496832455,e0bfd2fbf81644dbf2868ab918c500cd,Question,9,1,e,NULL,NULL,biliyor,1,1195
1496832455,e0bfd2fbf81644dbf2868ab918c500cd,Question,25,1,f,NULL,NULL,unuttu,0,2549
1496832455,e0bfd2fbf81644dbf2868ab918c500cd,Question,14,1,e,NULL,NULL,hatırlıyor,0,2666
1496832455,e0bfd2fbf81644dbf2868ab918c500cd,Question,27,1,f,NULL,NULL,fark etti,1,3146
1496832455,e0bfd2fbf81644dbf2868ab918c500cd,Question,7,1,e,NULL,NULL,sanıyor,1,1574
1496832455,e0bfd2fbf81644dbf2868ab918c500cd,Question,22,1,f,NULL,NULL,gördü,0,1835
1496832455,e0bfd2fbf81644dbf2868ab918c500cd,Question,17,1,e,NULL,NULL,biliyor,1,1801
1496832455,e0bfd2fbf81644dbf2868ab918c500cd,Question,13,1,e,NULL,NULL,biliyor,1,1218
1496832455,e0bfd2fbf81644dbf2868ab918c500cd,Question,19,1,f,NULL,NULL,özledi,0,2808
1496832455,e0bfd2fbf81644dbf2868ab918c500cd,Question,12,1,e,NULL,NULL,düşünüyor,0,1508
1496832455,e0bfd2fbf81644dbf2868ab918c500cd,Question,24,1,f,NULL,NULL,fark etti,0,3524
1496832455,e0bfd2fbf81644dbf2868ab918c500cd,Question,11,1,e,NULL,NULL,sanıyor,1,3093
1496832455,e0bfd2fbf81644dbf2868ab918c500cd,Question,20,1,f,NULL,NULL,gördü,0,2690
1496832455,e0bfd2fbf81644dbf2868ab918c500cd,Question,15,1,e,NULL,NULL,biliyor,0,1128
1496832455,e0bfd2fbf81644dbf2868ab918c500cd,Question,23,1,f,NULL,NULL,özledi,0,2116
1496832455,e0bfd2fbf81644dbf2868ab918c500cd,Question,16,1,e,NULL,NULL,düşünüyor,0,2149
1496832455,e0bfd2fbf81644dbf2868ab918c500cd,Question,26,1,f,NULL,NULL,unuttu,1,1814
# The lines below this comment are in groups of 2.
# The formats of the lines in each of these groups are as follows:
#
# Line 1:
#     Col. 1: Time results were received.
#     Col. 2: MD5 hash of participant's IP address.
#     Col. 3: Controller name.
#     Col. 4: Item number.
#     Col. 5: Element number.
#     Col. 6: Type.
#     Col. 7: Group.
#     Col. 8: Field name.
#     Col. 9: Field value.
# Line 2:
#     Col. 1: Time results were received.
#     Col. 2: MD5 hash of participant's IP address.
#     Col. 3: Controller name.
#     Col. 4: Item number.
#     Col. 5: Element number.
#     Col. 6: Type.
#     Col. 7: Group.
#     Col. 8: Question (NULL if none).
#     Col. 9: Answer.
#     Col. 10: Whether or not answer was correct (NULL if N/A).
#     Col. 11: Time taken to answer.
1496832455,e0bfd2fbf81644dbf2868ab918c500cd,Form,6,0,son,NULL,_REACTION_TIME_,3613
1496832455,e0bfd2fbf81644dbf2868ab918c500cd,Question,33,1,n,NULL,NULL,Ayşe'nin düşüncesi 'yağmur yağmıyor' şeklinde.,1,23213
# Columns below this comment are as follows:
# 1. Time results were received.
# 2. MD5 hash of participant's IP address.
# 3. Controller name.
# 4. Item number.
# 5. Element number.
# 6. Type.
# 7. Group.
# 8. Question (NULL if none).
# 9. Answer.
# 10. Whether or not answer was correct (NULL if N/A).
# 11. Time taken to answer.
1496832455,e0bfd2fbf81644dbf2868ab918c500cd,Question,35,1,c,NULL,NULL,Öğretmen Paris'te yaşamış.,1,4359
1496832455,e0bfd2fbf81644dbf2868ab918c500cd,Question,34,1,n,NULL,NULL,Başkanın düşüncesi 'ortak bir karara varmak zor olmayacak' şeklinde.,1,6792
1496832455,e0bfd2fbf81644dbf2868ab918c500cd,Question,36,1,c,NULL,NULL,Referandumu yüzde yüzle kazanmamış olabilir.,0,7425
#
# Results on Wednesday June 07 2017 11:22:11 UTC.
# USER AGENT: Mozilla/5.0 (Macintosh; Intel Mac OS X 10_12_5) AppleWebKit/537.36 (KHTML, like Gecko) Chrome/58.0.3029.110 Safari/537.36
# Design number was non-random = 13
#
# Columns below this comment are as follows:
# 1. Time results were received.
# 2. MD5 hash of participant's IP address.
# 3. Controller name.
# 4. Item number.
# 5. Element number.
# 6. Type.
# 7. Group.
# 8. Field name.
# 9. Field value.
1496834532,880523854c187dd5bc50dd6635daed19,Form,2,0,intro,NULL,name,H Y
1496834532,880523854c187dd5bc50dd6635daed19,Form,2,0,intro,NULL,age,27
1496834532,880523854c187dd5bc50dd6635daed19,Form,2,0,intro,NULL,anadil,yes
1496834532,880523854c187dd5bc50dd6635daed19,Form,2,0,intro,NULL,_REACTION_TIME_,17893
1496834532,880523854c187dd5bc50dd6635daed19,Form,3,0,intro,NULL,_REACTION_TIME_,26831
1496834532,880523854c187dd5bc50dd6635daed19,Form,4,0,intro,NULL,_REACTION_TIME_,7773
# Columns below this comment are as follows:
# 1. Time results were received.
# 2. MD5 hash of participant's IP address.
# 3. Controller name.
# 4. Item number.
# 5. Element number.
# 6. Type.
# 7. Group.
# 8. Question (NULL if none).
# 9. Answer.
# 10. Whether or not answer was correct (NULL if N/A).
# 11. Time taken to answer.
1496834532,880523854c187dd5bc50dd6635daed19,Question,32,1,p,NULL,NULL,kahveleri,0,1889
1496834532,880523854c187dd5bc50dd6635daed19,Question,31,1,p,NULL,NULL,mi,1,1101
1496834532,880523854c187dd5bc50dd6635daed19,Question,29,1,p,NULL,NULL,savaş,0,2292
1496834532,880523854c187dd5bc50dd6635daed19,Question,30,1,p,NULL,NULL,arayacak,0,4159
# The lines below this comment are in groups of 2.
# The formats of the lines in each of these groups are as follows:
#
# Line 1:
#     Col. 1: Time results were received.
#     Col. 2: MD5 hash of participant's IP address.
#     Col. 3: Controller name.
#     Col. 4: Item number.
#     Col. 5: Element number.
#     Col. 6: Type.
#     Col. 7: Group.
#     Col. 8: Field name.
#     Col. 9: Field value.
# Line 2:
#     Col. 1: Time results were received.
#     Col. 2: MD5 hash of participant's IP address.
#     Col. 3: Controller name.
#     Col. 4: Item number.
#     Col. 5: Element number.
#     Col. 6: Type.
#     Col. 7: Group.
#     Col. 8: Question (NULL if none).
#     Col. 9: Answer.
#     Col. 10: Whether or not answer was correct (NULL if N/A).
#     Col. 11: Time taken to answer.
1496834532,880523854c187dd5bc50dd6635daed19,Form,5,0,devam,NULL,_REACTION_TIME_,3798
1496834532,880523854c187dd5bc50dd6635daed19,Question,14,1,e,NULL,NULL,düşünüyor,1,1453
# Columns below this comment are as follows:
# 1. Time results were received.
# 2. MD5 hash of participant's IP address.
# 3. Controller name.
# 4. Item number.
# 5. Element number.
# 6. Type.
# 7. Group.
# 8. Question (NULL if none).
# 9. Answer.
# 10. Whether or not answer was correct (NULL if N/A).
# 11. Time taken to answer.
1496834532,880523854c187dd5bc50dd6635daed19,Question,9,1,e,NULL,NULL,biliyor,1,1839
1496834532,880523854c187dd5bc50dd6635daed19,Question,20,1,f,NULL,NULL,gördü,0,2455
1496834532,880523854c187dd5bc50dd6635daed19,Question,7,1,e,NULL,NULL,biliyor,0,1433
1496834532,880523854c187dd5bc50dd6635daed19,Question,27,1,f,NULL,NULL,fark etti,1,1458
1496834532,880523854c187dd5bc50dd6635daed19,Question,18,1,e,NULL,NULL,düşünüyor,1,1424
1496834532,880523854c187dd5bc50dd6635daed19,Question,24,1,f,NULL,NULL,unuttu,1,2066
1496834532,880523854c187dd5bc50dd6635daed19,Question,12,1,e,NULL,NULL,düşünüyor,0,1390
1496834532,880523854c187dd5bc50dd6635daed19,Question,28,1,f,NULL,NULL,fark etti,0,2169
1496834532,880523854c187dd5bc50dd6635daed19,Question,8,1,e,NULL,NULL,düşünüyor,0,865
1496834532,880523854c187dd5bc50dd6635daed19,Question,23,1,f,NULL,NULL,özledi,0,3259
1496834532,880523854c187dd5bc50dd6635daed19,Question,17,1,e,NULL,NULL,biliyor,1,2652
1496834532,880523854c187dd5bc50dd6635daed19,Question,15,1,e,NULL,NULL,biliyor,0,2504
1496834532,880523854c187dd5bc50dd6635daed19,Question,22,1,f,NULL,NULL,gördü,0,1729
1496834532,880523854c187dd5bc50dd6635daed19,Question,13,1,e,NULL,NULL,biliyor,1,1761
1496834532,880523854c187dd5bc50dd6635daed19,Question,26,1,f,NULL,NULL,fark etti,0,1752
1496834532,880523854c187dd5bc50dd6635daed19,Question,11,1,e,NULL,NULL,biliyor,0,2007
1496834532,880523854c187dd5bc50dd6635daed19,Question,25,1,f,NULL,NULL,fark etti,1,1717
1496834532,880523854c187dd5bc50dd6635daed19,Question,10,1,e,NULL,NULL,düşünüyor,1,1239
1496834532,880523854c187dd5bc50dd6635daed19,Question,19,1,f,NULL,NULL,gördü,1,1793
1496834532,880523854c187dd5bc50dd6635daed19,Question,16,1,e,NULL,NULL,düşünüyor,0,1914
1496834532,880523854c187dd5bc50dd6635daed19,Question,21,1,f,NULL,NULL,gördü,1,5153
# The lines below this comment are in groups of 2.
# The formats of the lines in each of these groups are as follows:
#
# Line 1:
#     Col. 1: Time results were received.
#     Col. 2: MD5 hash of participant's IP address.
#     Col. 3: Controller name.
#     Col. 4: Item number.
#     Col. 5: Element number.
#     Col. 6: Type.
#     Col. 7: Group.
#     Col. 8: Field name.
#     Col. 9: Field value.
# Line 2:
#     Col. 1: Time results were received.
#     Col. 2: MD5 hash of participant's IP address.
#     Col. 3: Controller name.
#     Col. 4: Item number.
#     Col. 5: Element number.
#     Col. 6: Type.
#     Col. 7: Group.
#     Col. 8: Question (NULL if none).
#     Col. 9: Answer.
#     Col. 10: Whether or not answer was correct (NULL if N/A).
#     Col. 11: Time taken to answer.
1496834532,880523854c187dd5bc50dd6635daed19,Form,6,0,son,NULL,_REACTION_TIME_,13822
1496834532,880523854c187dd5bc50dd6635daed19,Question,33,1,n,NULL,NULL,Ayşe'nin düşüncesi 'yağmur yağıyor' şeklinde değil.,0,10664
# Columns below this comment are as follows:
# 1. Time results were received.
# 2. MD5 hash of participant's IP address.
# 3. Controller name.
# 4. Item number.
# 5. Element number.
# 6. Type.
# 7. Group.
# 8. Question (NULL if none).
# 9. Answer.
# 10. Whether or not answer was correct (NULL if N/A).
# 11. Time taken to answer.
1496834532,880523854c187dd5bc50dd6635daed19,Question,36,1,c,NULL,NULL,Referandumu yüzde yüzle kazanmış.,1,5805
1496834532,880523854c187dd5bc50dd6635daed19,Question,34,1,n,NULL,NULL,Başkanın düşüncesi 'ortak bir karara varmak zor olmayacak' şeklinde.,1,43597
1496834532,880523854c187dd5bc50dd6635daed19,Question,35,1,c,NULL,NULL,Öğretmen Paris'te yaşamamış olabilir.,0,3685
#
# Results on Wednesday June 07 2017 11:46:22 UTC.
# USER AGENT: Mozilla/5.0 (Macintosh; Intel Mac OS X 10_9_5) AppleWebKit/601.7.8 (KHTML, like Gecko) Version/9.1.3 Safari/537.86.7
# Design number was non-random = 14
#
# Columns below this comment are as follows:
# 1. Time results were received.
# 2. MD5 hash of participant's IP address.
# 3. Controller name.
# 4. Item number.
# 5. Element number.
# 6. Type.
# 7. Group.
# 8. Field name.
# 9. Field value.
1496835983,af47eefdecebbf8e5c9194050cf4e215,Form,2,0,intro,NULL,name,Metin Bagriacik
1496835983,af47eefdecebbf8e5c9194050cf4e215,Form,2,0,intro,NULL,age,30
1496835983,af47eefdecebbf8e5c9194050cf4e215,Form,2,0,intro,NULL,anadil,yes
1496835983,af47eefdecebbf8e5c9194050cf4e215,Form,2,0,intro,NULL,_REACTION_TIME_,52346
1496835983,af47eefdecebbf8e5c9194050cf4e215,Form,3,0,intro,NULL,_REACTION_TIME_,23518
1496835983,af47eefdecebbf8e5c9194050cf4e215,Form,4,0,intro,NULL,_REACTION_TIME_,9141
# Columns below this comment are as follows:
# 1. Time results were received.
# 2. MD5 hash of participant's IP address.
# 3. Controller name.
# 4. Item number.
# 5. Element number.
# 6. Type.
# 7. Group.
# 8. Question (NULL if none).
# 9. Answer.
# 10. Whether or not answer was correct (NULL if N/A).
# 11. Time taken to answer.
1496835983,af47eefdecebbf8e5c9194050cf4e215,Question,29,1,p,NULL,NULL,barış,1,4836
1496835983,af47eefdecebbf8e5c9194050cf4e215,Question,31,1,p,NULL,NULL,mi,1,3670
1496835983,af47eefdecebbf8e5c9194050cf4e215,Question,32,1,p,NULL,NULL,kitapları,1,5803
1496835983,af47eefdecebbf8e5c9194050cf4e215,Question,30,1,p,NULL,NULL,kaçırdı,1,2294
# The lines below this comment are in groups of 2.
# The formats of the lines in each of these groups are as follows:
#
# Line 1:
#     Col. 1: Time results were received.
#     Col. 2: MD5 hash of participant's IP address.
#     Col. 3: Controller name.
#     Col. 4: Item number.
#     Col. 5: Element number.
#     Col. 6: Type.
#     Col. 7: Group.
#     Col. 8: Field name.
#     Col. 9: Field value.
# Line 2:
#     Col. 1: Time results were received.
#     Col. 2: MD5 hash of participant's IP address.
#     Col. 3: Controller name.
#     Col. 4: Item number.
#     Col. 5: Element number.
#     Col. 6: Type.
#     Col. 7: Group.
#     Col. 8: Question (NULL if none).
#     Col. 9: Answer.
#     Col. 10: Whether or not answer was correct (NULL if N/A).
#     Col. 11: Time taken to answer.
1496835983,af47eefdecebbf8e5c9194050cf4e215,Form,5,0,devam,NULL,_REACTION_TIME_,4603
1496835983,af47eefdecebbf8e5c9194050cf4e215,Question,7,1,e,NULL,NULL,biliyor,0,2034
# Columns below this comment are as follows:
# 1. Time results were received.
# 2. MD5 hash of participant's IP address.
# 3. Controller name.
# 4. Item number.
# 5. Element number.
# 6. Type.
# 7. Group.
# 8. Question (NULL if none).
# 9. Answer.
# 10. Whether or not answer was correct (NULL if N/A).
# 11. Time taken to answer.
1496835983,af47eefdecebbf8e5c9194050cf4e215,Question,25,1,f,NULL,NULL,fark etti,1,1809
1496835983,af47eefdecebbf8e5c9194050cf4e215,Question,12,1,e,NULL,NULL,düşünüyor,0,1274
1496835983,af47eefdecebbf8e5c9194050cf4e215,Question,20,1,f,NULL,NULL,gördü,0,2541
1496835983,af47eefdecebbf8e5c9194050cf4e215,Question,17,1,e,NULL,NULL,biliyor,1,1506
1496835983,af47eefdecebbf8e5c9194050cf4e215,Question,27,1,f,NULL,NULL,fark etti,1,3844
1496835983,af47eefdecebbf8e5c9194050cf4e215,Question,14,1,e,NULL,NULL,düşünüyor,1,3544
1496835983,af47eefdecebbf8e5c9194050cf4e215,Question,21,1,f,NULL,NULL,gördü,1,3479
1496835983,af47eefdecebbf8e5c9194050cf4e215,Question,16,1,e,NULL,NULL,düşünüyor,0,2605
1496835983,af47eefdecebbf8e5c9194050cf4e215,Question,19,1,f,NULL,NULL,gördü,1,2567
1496835983,af47eefdecebbf8e5c9194050cf4e215,Question,10,1,e,NULL,NULL,düşünüyor,1,1859
1496835983,af47eefdecebbf8e5c9194050cf4e215,Question,15,1,e,NULL,NULL,biliyor,0,2125
1496835983,af47eefdecebbf8e5c9194050cf4e215,Question,24,1,f,NULL,NULL,unuttu,1,2464
1496835983,af47eefdecebbf8e5c9194050cf4e215,Question,9,1,e,NULL,NULL,biliyor,1,1438
1496835983,af47eefdecebbf8e5c9194050cf4e215,Question,22,1,f,NULL,NULL,özledi,1,2217
1496835983,af47eefdecebbf8e5c9194050cf4e215,Question,8,1,e,NULL,NULL,düşünüyor,0,2115
1496835983,af47eefdecebbf8e5c9194050cf4e215,Question,23,1,f,NULL,NULL,özledi,0,5156
1496835983,af47eefdecebbf8e5c9194050cf4e215,Question,18,1,e,NULL,NULL,düşünüyor,1,2706
1496835983,af47eefdecebbf8e5c9194050cf4e215,Question,26,1,f,NULL,NULL,fark etti,0,1554
1496835983,af47eefdecebbf8e5c9194050cf4e215,Question,13,1,e,NULL,NULL,biliyor,1,954
1496835983,af47eefdecebbf8e5c9194050cf4e215,Question,28,1,f,NULL,NULL,fark etti,0,1898
1496835983,af47eefdecebbf8e5c9194050cf4e215,Question,11,1,e,NULL,NULL,biliyor,0,1582
# The lines below this comment are in groups of 2.
# The formats of the lines in each of these groups are as follows:
#
# Line 1:
#     Col. 1: Time results were received.
#     Col. 2: MD5 hash of participant's IP address.
#     Col. 3: Controller name.
#     Col. 4: Item number.
#     Col. 5: Element number.
#     Col. 6: Type.
#     Col. 7: Group.
#     Col. 8: Field name.
#     Col. 9: Field value.
# Line 2:
#     Col. 1: Time results were received.
#     Col. 2: MD5 hash of participant's IP address.
#     Col. 3: Controller name.
#     Col. 4: Item number.
#     Col. 5: Element number.
#     Col. 6: Type.
#     Col. 7: Group.
#     Col. 8: Question (NULL if none).
#     Col. 9: Answer.
#     Col. 10: Whether or not answer was correct (NULL if N/A).
#     Col. 11: Time taken to answer.
1496835983,af47eefdecebbf8e5c9194050cf4e215,Form,6,0,son,NULL,_REACTION_TIME_,11898
1496835983,af47eefdecebbf8e5c9194050cf4e215,Question,33,1,n,NULL,NULL,Ayşe'nin düşüncesi 'yağmur yağıyor' şeklinde değil.,0,6156
# Columns below this comment are as follows:
# 1. Time results were received.
# 2. MD5 hash of participant's IP address.
# 3. Controller name.
# 4. Item number.
# 5. Element number.
# 6. Type.
# 7. Group.
# 8. Question (NULL if none).
# 9. Answer.
# 10. Whether or not answer was correct (NULL if N/A).
# 11. Time taken to answer.
1496835983,af47eefdecebbf8e5c9194050cf4e215,Question,35,1,c,NULL,NULL,Öğretmen Paris'te yaşamış.,1,7419
1496835983,af47eefdecebbf8e5c9194050cf4e215,Question,34,1,n,NULL,NULL,Başkanın düşüncesi 'ortak bir karara varmak zor olacak' şeklinde değil.,0,5394
1496835983,af47eefdecebbf8e5c9194050cf4e215,Question,36,1,c,NULL,NULL,Referandumu yüzde yüzle kazanmış.,1,6854
#
# Results on Wednesday June 07 2017 20:41:48 UTC.
# USER AGENT: Mozilla/5.0 (Windows NT 6.3; WOW64) AppleWebKit/537.36 (KHTML, like Gecko) Chrome/58.1.3029.81 Safari/537.36
# Design number was non-random = 15
#
# Columns below this comment are as follows:
# 1. Time results were received.
# 2. MD5 hash of participant's IP address.
# 3. Controller name.
# 4. Item number.
# 5. Element number.
# 6. Type.
# 7. Group.
# 8. Field name.
# 9. Field value.
1496868108,8cbd9bb09a5ccc0ff6458708a5d0b756,Form,2,0,intro,NULL,name,EY
1496868108,8cbd9bb09a5ccc0ff6458708a5d0b756,Form,2,0,intro,NULL,age,21
1496868108,8cbd9bb09a5ccc0ff6458708a5d0b756,Form,2,0,intro,NULL,anadil,yes
1496868108,8cbd9bb09a5ccc0ff6458708a5d0b756,Form,2,0,intro,NULL,_REACTION_TIME_,8522
1496868108,8cbd9bb09a5ccc0ff6458708a5d0b756,Form,3,0,intro,NULL,_REACTION_TIME_,14686
1496868108,8cbd9bb09a5ccc0ff6458708a5d0b756,Form,4,0,intro,NULL,_REACTION_TIME_,3696
# Columns below this comment are as follows:
# 1. Time results were received.
# 2. MD5 hash of participant's IP address.
# 3. Controller name.
# 4. Item number.
# 5. Element number.
# 6. Type.
# 7. Group.
# 8. Question (NULL if none).
# 9. Answer.
# 10. Whether or not answer was correct (NULL if N/A).
# 11. Time taken to answer.
1496868108,8cbd9bb09a5ccc0ff6458708a5d0b756,Question,29,1,p,NULL,NULL,barış,1,6165
1496868108,8cbd9bb09a5ccc0ff6458708a5d0b756,Question,31,1,p,NULL,NULL,mi,1,2064
1496868108,8cbd9bb09a5ccc0ff6458708a5d0b756,Question,30,1,p,NULL,NULL,arayacak,0,3772
1496868108,8cbd9bb09a5ccc0ff6458708a5d0b756,Question,32,1,p,NULL,NULL,kahveleri,0,1828
# The lines below this comment are in groups of 2.
# The formats of the lines in each of these groups are as follows:
#
# Line 1:
#     Col. 1: Time results were received.
#     Col. 2: MD5 hash of participant's IP address.
#     Col. 3: Controller name.
#     Col. 4: Item number.
#     Col. 5: Element number.
#     Col. 6: Type.
#     Col. 7: Group.
#     Col. 8: Field name.
#     Col. 9: Field value.
# Line 2:
#     Col. 1: Time results were received.
#     Col. 2: MD5 hash of participant's IP address.
#     Col. 3: Controller name.
#     Col. 4: Item number.
#     Col. 5: Element number.
#     Col. 6: Type.
#     Col. 7: Group.
#     Col. 8: Question (NULL if none).
#     Col. 9: Answer.
#     Col. 10: Whether or not answer was correct (NULL if N/A).
#     Col. 11: Time taken to answer.
1496868108,8cbd9bb09a5ccc0ff6458708a5d0b756,Form,5,0,devam,NULL,_REACTION_TIME_,2196
1496868108,8cbd9bb09a5ccc0ff6458708a5d0b756,Question,9,1,e,NULL,NULL,biliyor,1,3608
# Columns below this comment are as follows:
# 1. Time results were received.
# 2. MD5 hash of participant's IP address.
# 3. Controller name.
# 4. Item number.
# 5. Element number.
# 6. Type.
# 7. Group.
# 8. Question (NULL if none).
# 9. Answer.
# 10. Whether or not answer was correct (NULL if N/A).
# 11. Time taken to answer.
1496868108,8cbd9bb09a5ccc0ff6458708a5d0b756,Question,19,1,f,NULL,NULL,gördü,1,3054
1496868108,8cbd9bb09a5ccc0ff6458708a5d0b756,Question,11,1,e,NULL,NULL,sanıyor,1,2589
1496868108,8cbd9bb09a5ccc0ff6458708a5d0b756,Question,23,1,f,NULL,NULL,özledi,0,3330
1496868108,8cbd9bb09a5ccc0ff6458708a5d0b756,Question,13,1,e,NULL,NULL,biliyor,1,2266
1496868108,8cbd9bb09a5ccc0ff6458708a5d0b756,Question,25,1,f,NULL,NULL,fark etti,1,2057
1496868108,8cbd9bb09a5ccc0ff6458708a5d0b756,Question,7,1,e,NULL,NULL,biliyor,0,3009
1496868108,8cbd9bb09a5ccc0ff6458708a5d0b756,Question,22,1,f,NULL,NULL,gördü,0,2080
1496868108,8cbd9bb09a5ccc0ff6458708a5d0b756,Question,15,1,e,NULL,NULL,biliyor,0,5173
1496868108,8cbd9bb09a5ccc0ff6458708a5d0b756,Question,27,1,f,NULL,NULL,fark etti,1,3074
1496868108,8cbd9bb09a5ccc0ff6458708a5d0b756,Question,12,1,e,NULL,NULL,düşünüyor,0,1193
1496868108,8cbd9bb09a5ccc0ff6458708a5d0b756,Question,10,1,e,NULL,NULL,düşünüyor,1,1875
1496868108,8cbd9bb09a5ccc0ff6458708a5d0b756,Question,26,1,f,NULL,NULL,fark etti,0,1848
