#
# Results on Monday June 05 2017 17:07:11 UTC.
# USER AGENT: Mozilla/5.0 (Windows NT 10.0; Win64; x64) AppleWebKit/537.36 (KHTML, like Gecko) Chrome/58.0.3029.110 Safari/537.36
# Design number was non-random = 0
#
# Columns below this comment are as follows:
# 1. Time results were received.
# 2. MD5 hash of participant's IP address.
# 3. Controller name.
# 4. Item number.
# 5. Element number.
# 6. Type.
# 7. Group.
# 8. Field name.
# 9. Field value.
1496682432,2cc0ccd6436fa8c69e5652635df75c2c,Form,2,0,intro,NULL,name,EÇ
1496682432,2cc0ccd6436fa8c69e5652635df75c2c,Form,2,0,intro,NULL,age,22
1496682432,2cc0ccd6436fa8c69e5652635df75c2c,Form,2,0,intro,NULL,anadil,yes
1496682432,2cc0ccd6436fa8c69e5652635df75c2c,Form,2,0,intro,NULL,_REACTION_TIME_,70752
1496682432,2cc0ccd6436fa8c69e5652635df75c2c,Form,3,0,intro,NULL,_REACTION_TIME_,26112
1496682432,2cc0ccd6436fa8c69e5652635df75c2c,Form,4,0,intro,NULL,_REACTION_TIME_,15625
# Columns below this comment are as follows:
# 1. Time results were received.
# 2. MD5 hash of participant's IP address.
# 3. Controller name.
# 4. Item number.
# 5. Element number.
# 6. Type.
# 7. Group.
# 8. Question (NULL if none).
# 9. Answer.
# 10. Whether or not answer was correct (NULL if N/A).
# 11. Time taken to answer.
1496682432,2cc0ccd6436fa8c69e5652635df75c2c,Question,30,1,p,NULL,NULL,arayacak,0,6754
1496682432,2cc0ccd6436fa8c69e5652635df75c2c,Question,29,1,p,NULL,NULL,barış,1,9093
1496682432,2cc0ccd6436fa8c69e5652635df75c2c,Question,32,1,p,NULL,NULL,kahveleri,0,3581
1496682432,2cc0ccd6436fa8c69e5652635df75c2c,Question,31,1,p,NULL,NULL,mi,1,2865
# The lines below this comment are in groups of 2.
# The formats of the lines in each of these groups are as follows:
#
# Line 1:
#     Col. 1: Time results were received.
#     Col. 2: MD5 hash of participant's IP address.
#     Col. 3: Controller name.
#     Col. 4: Item number.
#     Col. 5: Element number.
#     Col. 6: Type.
#     Col. 7: Group.
#     Col. 8: Field name.
#     Col. 9: Field value.
# Line 2:
#     Col. 1: Time results were received.
#     Col. 2: MD5 hash of participant's IP address.
#     Col. 3: Controller name.
#     Col. 4: Item number.
#     Col. 5: Element number.
#     Col. 6: Type.
#     Col. 7: Group.
#     Col. 8: Question (NULL if none).
#     Col. 9: Answer.
#     Col. 10: Whether or not answer was correct (NULL if N/A).
#     Col. 11: Time taken to answer.
1496682432,2cc0ccd6436fa8c69e5652635df75c2c,Form,5,0,devam,NULL,_REACTION_TIME_,2387
1496682432,2cc0ccd6436fa8c69e5652635df75c2c,Question,14,1,e,NULL,NULL,düşünüyor,1,3230
# Columns below this comment are as follows:
# 1. Time results were received.
# 2. MD5 hash of participant's IP address.
# 3. Controller name.
# 4. Item number.
# 5. Element number.
# 6. Type.
# 7. Group.
# 8. Question (NULL if none).
# 9. Answer.
# 10. Whether or not answer was correct (NULL if N/A).
# 11. Time taken to answer.
1496682432,2cc0ccd6436fa8c69e5652635df75c2c,Question,13,1,e,NULL,NULL,sanıyor,0,2781
1496682432,2cc0ccd6436fa8c69e5652635df75c2c,Question,24,1,f,NULL,NULL,unuttu,1,4973
1496682432,2cc0ccd6436fa8c69e5652635df75c2c,Question,9,1,e,NULL,NULL,biliyor,1,4987
1496682432,2cc0ccd6436fa8c69e5652635df75c2c,Question,28,1,f,NULL,NULL,fark etti,0,2404
1496682432,2cc0ccd6436fa8c69e5652635df75c2c,Question,17,1,e,NULL,NULL,biliyor,1,6028
1496682432,2cc0ccd6436fa8c69e5652635df75c2c,Question,22,1,f,NULL,NULL,gördü,0,3877
1496682432,2cc0ccd6436fa8c69e5652635df75c2c,Question,7,1,e,NULL,NULL,sanıyor,1,4375
1496682432,2cc0ccd6436fa8c69e5652635df75c2c,Question,25,1,f,NULL,NULL,fark etti,1,3204
1496682432,2cc0ccd6436fa8c69e5652635df75c2c,Question,16,1,e,NULL,NULL,hatırlıyor,1,4786
1496682432,2cc0ccd6436fa8c69e5652635df75c2c,Question,20,1,f,NULL,NULL,özledi,1,4844
1496682432,2cc0ccd6436fa8c69e5652635df75c2c,Question,15,1,e,NULL,NULL,biliyor,0,1934
1496682432,2cc0ccd6436fa8c69e5652635df75c2c,Question,12,1,e,NULL,NULL,hatırlıyor,1,4121
1496682432,2cc0ccd6436fa8c69e5652635df75c2c,Question,27,1,f,NULL,NULL,fark etti,1,3339
1496682432,2cc0ccd6436fa8c69e5652635df75c2c,Question,10,1,e,NULL,NULL,düşünüyor,1,3573
1496682432,2cc0ccd6436fa8c69e5652635df75c2c,Question,21,1,f,NULL,NULL,gördü,1,4300
1496682432,2cc0ccd6436fa8c69e5652635df75c2c,Question,18,1,e,NULL,NULL,düşünüyor,1,2684
1496682432,2cc0ccd6436fa8c69e5652635df75c2c,Question,26,1,f,NULL,NULL,fark etti,0,4025
1496682432,2cc0ccd6436fa8c69e5652635df75c2c,Question,11,1,e,NULL,NULL,biliyor,0,5030
1496682432,2cc0ccd6436fa8c69e5652635df75c2c,Question,19,1,f,NULL,NULL,özledi,0,3296
1496682432,2cc0ccd6436fa8c69e5652635df75c2c,Question,8,1,e,NULL,NULL,düşünüyor,0,7989
1496682432,2cc0ccd6436fa8c69e5652635df75c2c,Question,23,1,f,NULL,NULL,gördü,1,3559
# The lines below this comment are in groups of 2.
# The formats of the lines in each of these groups are as follows:
#
# Line 1:
#     Col. 1: Time results were received.
#     Col. 2: MD5 hash of participant's IP address.
#     Col. 3: Controller name.
#     Col. 4: Item number.
#     Col. 5: Element number.
#     Col. 6: Type.
#     Col. 7: Group.
#     Col. 8: Field name.
#     Col. 9: Field value.
# Line 2:
#     Col. 1: Time results were received.
#     Col. 2: MD5 hash of participant's IP address.
#     Col. 3: Controller name.
#     Col. 4: Item number.
#     Col. 5: Element number.
#     Col. 6: Type.
#     Col. 7: Group.
#     Col. 8: Question (NULL if none).
#     Col. 9: Answer.
#     Col. 10: Whether or not answer was correct (NULL if N/A).
#     Col. 11: Time taken to answer.
1496682432,2cc0ccd6436fa8c69e5652635df75c2c,Form,6,0,son,NULL,_REACTION_TIME_,12874
1496682432,2cc0ccd6436fa8c69e5652635df75c2c,Question,36,1,c,NULL,NULL,Referandumu yüzde yüzle kazanmış.,1,7765
# Columns below this comment are as follows:
# 1. Time results were received.
# 2. MD5 hash of participant's IP address.
# 3. Controller name.
# 4. Item number.
# 5. Element number.
# 6. Type.
# 7. Group.
# 8. Question (NULL if none).
# 9. Answer.
# 10. Whether or not answer was correct (NULL if N/A).
# 11. Time taken to answer.
1496682432,2cc0ccd6436fa8c69e5652635df75c2c,Question,34,1,n,NULL,NULL,Başkanın düşüncesi 'ortak bir karara varmak zor olmayacak' şeklinde.,1,7908
1496682432,2cc0ccd6436fa8c69e5652635df75c2c,Question,35,1,c,NULL,NULL,Öğretmen Paris'te yaşamış.,1,6623
1496682432,2cc0ccd6436fa8c69e5652635df75c2c,Question,33,1,n,NULL,NULL,Ayşe'nin düşüncesi 'yağmur yağmıyor' şeklinde.,1,3349
#
# Results on Tuesday June 06 2017 08:30:44 UTC.
# USER AGENT: Mozilla/5.0 (Macintosh; Intel Mac OS X 10_12_1) AppleWebKit/537.36 (KHTML, like Gecko) Chrome/58.0.3029.110 Safari/537.36
# Design number was non-random = 1
#
# Columns below this comment are as follows:
# 1. Time results were received.
# 2. MD5 hash of participant's IP address.
# 3. Controller name.
# 4. Item number.
# 5. Element number.
# 6. Type.
# 7. Group.
# 8. Field name.
# 9. Field value.
1496737845,b5b784642405c83495ec85e91500a941,Form,2,0,intro,NULL,name,SA
1496737845,b5b784642405c83495ec85e91500a941,Form,2,0,intro,NULL,age,27
1496737845,b5b784642405c83495ec85e91500a941,Form,2,0,intro,NULL,anadil,yes
1496737845,b5b784642405c83495ec85e91500a941,Form,2,0,intro,NULL,_REACTION_TIME_,17176
1496737845,b5b784642405c83495ec85e91500a941,Form,3,0,intro,NULL,_REACTION_TIME_,24558
1496737845,b5b784642405c83495ec85e91500a941,Form,4,0,intro,NULL,_REACTION_TIME_,22408
# Columns below this comment are as follows:
# 1. Time results were received.
# 2. MD5 hash of participant's IP address.
# 3. Controller name.
# 4. Item number.
# 5. Element number.
# 6. Type.
# 7. Group.
# 8. Question (NULL if none).
# 9. Answer.
# 10. Whether or not answer was correct (NULL if N/A).
# 11. Time taken to answer.
1496737845,b5b784642405c83495ec85e91500a941,Question,31,1,p,NULL,NULL,mi,1,4852
1496737845,b5b784642405c83495ec85e91500a941,Question,29,1,p,NULL,NULL,barış,1,3758
1496737845,b5b784642405c83495ec85e91500a941,Question,32,1,p,NULL,NULL,kahveleri,0,1927
1496737845,b5b784642405c83495ec85e91500a941,Question,30,1,p,NULL,NULL,arayacak,0,7940
# The lines below this comment are in groups of 2.
# The formats of the lines in each of these groups are as follows:
#
# Line 1:
#     Col. 1: Time results were received.
#     Col. 2: MD5 hash of participant's IP address.
#     Col. 3: Controller name.
#     Col. 4: Item number.
#     Col. 5: Element number.
#     Col. 6: Type.
#     Col. 7: Group.
#     Col. 8: Field name.
#     Col. 9: Field value.
# Line 2:
#     Col. 1: Time results were received.
#     Col. 2: MD5 hash of participant's IP address.
#     Col. 3: Controller name.
#     Col. 4: Item number.
#     Col. 5: Element number.
#     Col. 6: Type.
#     Col. 7: Group.
#     Col. 8: Question (NULL if none).
#     Col. 9: Answer.
#     Col. 10: Whether or not answer was correct (NULL if N/A).
#     Col. 11: Time taken to answer.
1496737845,b5b784642405c83495ec85e91500a941,Form,5,0,devam,NULL,_REACTION_TIME_,1915
1496737845,b5b784642405c83495ec85e91500a941,Question,10,1,e,NULL,NULL,düşünüyor,1,4325
# Columns below this comment are as follows:
# 1. Time results were received.
# 2. MD5 hash of participant's IP address.
# 3. Controller name.
# 4. Item number.
# 5. Element number.
# 6. Type.
# 7. Group.
# 8. Question (NULL if none).
# 9. Answer.
# 10. Whether or not answer was correct (NULL if N/A).
# 11. Time taken to answer.
1496737845,b5b784642405c83495ec85e91500a941,Question,25,1,f,NULL,NULL,fark etti,1,3279
1496737845,b5b784642405c83495ec85e91500a941,Question,17,1,e,NULL,NULL,biliyor,1,2628
1496737845,b5b784642405c83495ec85e91500a941,Question,24,1,f,NULL,NULL,unuttu,1,3540
1496737845,b5b784642405c83495ec85e91500a941,Question,7,1,e,NULL,NULL,sanıyor,1,2049
1496737845,b5b784642405c83495ec85e91500a941,Question,26,1,f,NULL,NULL,fark etti,0,2830
1496737845,b5b784642405c83495ec85e91500a941,Question,13,1,e,NULL,NULL,biliyor,1,2291
1496737845,b5b784642405c83495ec85e91500a941,Question,27,1,f,NULL,NULL,fark etti,1,8114
1496737845,b5b784642405c83495ec85e91500a941,Question,16,1,e,NULL,NULL,hatırlıyor,1,3331
1496737845,b5b784642405c83495ec85e91500a941,Question,23,1,f,NULL,NULL,gördü,1,7521
1496737845,b5b784642405c83495ec85e91500a941,Question,14,1,e,NULL,NULL,düşünüyor,1,2276
1496737845,b5b784642405c83495ec85e91500a941,Question,11,1,e,NULL,NULL,biliyor,0,1513
1496737845,b5b784642405c83495ec85e91500a941,Question,20,1,f,NULL,NULL,gördü,0,2771
1496737845,b5b784642405c83495ec85e91500a941,Question,12,1,e,NULL,NULL,hatırlıyor,1,1874
1496737845,b5b784642405c83495ec85e91500a941,Question,22,1,f,NULL,NULL,gördü,0,1383
1496737845,b5b784642405c83495ec85e91500a941,Question,8,1,e,NULL,NULL,hatırlıyor,1,1527
1496737845,b5b784642405c83495ec85e91500a941,Question,21,1,f,NULL,NULL,gördü,1,1693
1496737845,b5b784642405c83495ec85e91500a941,Question,15,1,e,NULL,NULL,biliyor,0,1002
1496737845,b5b784642405c83495ec85e91500a941,Question,28,1,f,NULL,NULL,fark etti,0,1612
1496737845,b5b784642405c83495ec85e91500a941,Question,18,1,e,NULL,NULL,düşünüyor,1,2322
1496737845,b5b784642405c83495ec85e91500a941,Question,19,1,f,NULL,NULL,gördü,1,1355
1496737845,b5b784642405c83495ec85e91500a941,Question,9,1,e,NULL,NULL,biliyor,1,1325
# The lines below this comment are in groups of 2.
# The formats of the lines in each of these groups are as follows:
#
# Line 1:
#     Col. 1: Time results were received.
#     Col. 2: MD5 hash of participant's IP address.
#     Col. 3: Controller name.
#     Col. 4: Item number.
#     Col. 5: Element number.
#     Col. 6: Type.
#     Col. 7: Group.
#     Col. 8: Field name.
#     Col. 9: Field value.
# Line 2:
#     Col. 1: Time results were received.
#     Col. 2: MD5 hash of participant's IP address.
#     Col. 3: Controller name.
#     Col. 4: Item number.
#     Col. 5: Element number.
#     Col. 6: Type.
#     Col. 7: Group.
#     Col. 8: Question (NULL if none).
#     Col. 9: Answer.
#     Col. 10: Whether or not answer was correct (NULL if N/A).
#     Col. 11: Time taken to answer.
1496737845,b5b784642405c83495ec85e91500a941,Form,6,0,son,NULL,_REACTION_TIME_,14464
1496737845,b5b784642405c83495ec85e91500a941,Question,33,1,n,NULL,NULL,Ayşe'nin düşüncesi 'yağmur yağıyor' şeklinde değil.,0,41364
# Columns below this comment are as follows:
# 1. Time results were received.
# 2. MD5 hash of participant's IP address.
# 3. Controller name.
# 4. Item number.
# 5. Element number.
# 6. Type.
# 7. Group.
# 8. Question (NULL if none).
# 9. Answer.
# 10. Whether or not answer was correct (NULL if N/A).
# 11. Time taken to answer.
1496737845,b5b784642405c83495ec85e91500a941,Question,35,1,c,NULL,NULL,Öğretmen Paris'te yaşamış.,1,11241
1496737845,b5b784642405c83495ec85e91500a941,Question,34,1,n,NULL,NULL,Başkanın düşüncesi 'ortak bir karara varmak zor olacak' şeklinde değil.,0,16829
1496737845,b5b784642405c83495ec85e91500a941,Question,36,1,c,NULL,NULL,Referandumu yüzde yüzle kazanmamış olabilir.,0,10376
#
# Results on Tuesday June 06 2017 09:20:35 UTC.
# USER AGENT: Mozilla/5.0 (Windows NT 6.1; Win64; x64) AppleWebKit/537.36 (KHTML, like Gecko) Chrome/59.0.3071.86 Safari/537.36
# Design number was non-random = 2
#
# Columns below this comment are as follows:
# 1. Time results were received.
# 2. MD5 hash of participant's IP address.
# 3. Controller name.
# 4. Item number.
# 5. Element number.
# 6. Type.
# 7. Group.
# 8. Field name.
# 9. Field value.
1496740836,f067b3a875e11f7b3bb013562f203911,Form,2,0,intro,NULL,name,dd
1496740836,f067b3a875e11f7b3bb013562f203911,Form,2,0,intro,NULL,age,24
1496740836,f067b3a875e11f7b3bb013562f203911,Form,2,0,intro,NULL,anadil,yes
1496740836,f067b3a875e11f7b3bb013562f203911,Form,2,0,intro,NULL,_REACTION_TIME_,11975
1496740836,f067b3a875e11f7b3bb013562f203911,Form,3,0,intro,NULL,_REACTION_TIME_,23464
1496740836,f067b3a875e11f7b3bb013562f203911,Form,4,0,intro,NULL,_REACTION_TIME_,5049
# Columns below this comment are as follows:
# 1. Time results were received.
# 2. MD5 hash of participant's IP address.
# 3. Controller name.
# 4. Item number.
# 5. Element number.
# 6. Type.
# 7. Group.
# 8. Question (NULL if none).
# 9. Answer.
# 10. Whether or not answer was correct (NULL if N/A).
# 11. Time taken to answer.
1496740836,f067b3a875e11f7b3bb013562f203911,Question,30,1,p,NULL,NULL,kaçırdı,1,7993
1496740836,f067b3a875e11f7b3bb013562f203911,Question,29,1,p,NULL,NULL,savaş,0,2235
1496740836,f067b3a875e11f7b3bb013562f203911,Question,32,1,p,NULL,NULL,kahveleri,0,2714
1496740836,f067b3a875e11f7b3bb013562f203911,Question,31,1,p,NULL,NULL,mi,1,2512
# The lines below this comment are in groups of 2.
# The formats of the lines in each of these groups are as follows:
#
# Line 1:
#     Col. 1: Time results were received.
#     Col. 2: MD5 hash of participant's IP address.
#     Col. 3: Controller name.
#     Col. 4: Item number.
#     Col. 5: Element number.
#     Col. 6: Type.
#     Col. 7: Group.
#     Col. 8: Field name.
#     Col. 9: Field value.
# Line 2:
#     Col. 1: Time results were received.
#     Col. 2: MD5 hash of participant's IP address.
#     Col. 3: Controller name.
#     Col. 4: Item number.
#     Col. 5: Element number.
#     Col. 6: Type.
#     Col. 7: Group.
#     Col. 8: Question (NULL if none).
#     Col. 9: Answer.
#     Col. 10: Whether or not answer was correct (NULL if N/A).
#     Col. 11: Time taken to answer.
1496740836,f067b3a875e11f7b3bb013562f203911,Form,5,0,devam,NULL,_REACTION_TIME_,2301
1496740836,f067b3a875e11f7b3bb013562f203911,Question,7,1,e,NULL,NULL,sanıyor,1,1786
# Columns below this comment are as follows:
# 1. Time results were received.
# 2. MD5 hash of participant's IP address.
# 3. Controller name.
# 4. Item number.
# 5. Element number.
# 6. Type.
# 7. Group.
# 8. Question (NULL if none).
# 9. Answer.
# 10. Whether or not answer was correct (NULL if N/A).
# 11. Time taken to answer.
1496740836,f067b3a875e11f7b3bb013562f203911,Question,17,1,e,NULL,NULL,sanıyor,0,6349
1496740836,f067b3a875e11f7b3bb013562f203911,Question,28,1,f,NULL,NULL,fark etti,0,2396
1496740836,f067b3a875e11f7b3bb013562f203911,Question,18,1,e,NULL,NULL,düşünüyor,1,1506
1496740836,f067b3a875e11f7b3bb013562f203911,Question,21,1,f,NULL,NULL,gördü,1,1826
1496740836,f067b3a875e11f7b3bb013562f203911,Question,14,1,e,NULL,NULL,düşünüyor,1,1575
1496740836,f067b3a875e11f7b3bb013562f203911,Question,27,1,f,NULL,NULL,fark etti,1,1543
1496740836,f067b3a875e11f7b3bb013562f203911,Question,11,1,e,NULL,NULL,sanıyor,1,1394
1496740836,f067b3a875e11f7b3bb013562f203911,Question,22,1,f,NULL,NULL,gördü,0,1413
1496740836,f067b3a875e11f7b3bb013562f203911,Question,15,1,e,NULL,NULL,biliyor,0,1045
1496740836,f067b3a875e11f7b3bb013562f203911,Question,25,1,f,NULL,NULL,unuttu,0,1680
1496740836,f067b3a875e11f7b3bb013562f203911,Question,9,1,e,NULL,NULL,sanıyor,0,1665
1496740836,f067b3a875e11f7b3bb013562f203911,Question,13,1,e,NULL,NULL,biliyor,1,1189
1496740836,f067b3a875e11f7b3bb013562f203911,Question,19,1,f,NULL,NULL,gördü,1,1236
1496740836,f067b3a875e11f7b3bb013562f203911,Question,12,1,e,NULL,NULL,düşünüyor,0,1322
1496740836,f067b3a875e11f7b3bb013562f203911,Question,23,1,f,NULL,NULL,gördü,1,2230
1496740836,f067b3a875e11f7b3bb013562f203911,Question,8,1,e,NULL,NULL,düşünüyor,0,1427
1496740836,f067b3a875e11f7b3bb013562f203911,Question,20,1,f,NULL,NULL,gördü,0,2262
1496740836,f067b3a875e11f7b3bb013562f203911,Question,10,1,e,NULL,NULL,düşünüyor,1,896
1496740836,f067b3a875e11f7b3bb013562f203911,Question,24,1,f,NULL,NULL,fark etti,0,1757
1496740836,f067b3a875e11f7b3bb013562f203911,Question,16,1,e,NULL,NULL,düşünüyor,0,1864
1496740836,f067b3a875e11f7b3bb013562f203911,Question,26,1,f,NULL,NULL,fark etti,0,2770
# The lines below this comment are in groups of 2.
# The formats of the lines in each of these groups are as follows:
#
# Line 1:
#     Col. 1: Time results were received.
#     Col. 2: MD5 hash of participant's IP address.
#     Col. 3: Controller name.
#     Col. 4: Item number.
#     Col. 5: Element number.
#     Col. 6: Type.
#     Col. 7: Group.
#     Col. 8: Field name.
#     Col. 9: Field value.
# Line 2:
#     Col. 1: Time results were received.
#     Col. 2: MD5 hash of participant's IP address.
#     Col. 3: Controller name.
#     Col. 4: Item number.
#     Col. 5: Element number.
#     Col. 6: Type.
#     Col. 7: Group.
#     Col. 8: Question (NULL if none).
#     Col. 9: Answer.
#     Col. 10: Whether or not answer was correct (NULL if N/A).
#     Col. 11: Time taken to answer.
1496740836,f067b3a875e11f7b3bb013562f203911,Form,6,0,son,NULL,_REACTION_TIME_,10583
1496740836,f067b3a875e11f7b3bb013562f203911,Question,33,1,n,NULL,NULL,Ayşe'nin düşüncesi 'yağmur yağmıyor' şeklinde.,1,13627
# Columns below this comment are as follows:
# 1. Time results were received.
# 2. MD5 hash of participant's IP address.
# 3. Controller name.
# 4. Item number.
# 5. Element number.
# 6. Type.
# 7. Group.
# 8. Question (NULL if none).
# 9. Answer.
# 10. Whether or not answer was correct (NULL if N/A).
# 11. Time taken to answer.
1496740836,f067b3a875e11f7b3bb013562f203911,Question,36,1,c,NULL,NULL,Referandumu yüzde yüzle kazanmış.,1,3427
1496740836,f067b3a875e11f7b3bb013562f203911,Question,34,1,n,NULL,NULL,Başkanın düşüncesi 'ortak bir karara varmak zor olacak' şeklinde değil.,0,8835
1496740836,f067b3a875e11f7b3bb013562f203911,Question,35,1,c,NULL,NULL,Öğretmen Paris'te yaşamış.,1,2089
#
# Results on Tuesday June 06 2017 09:55:17 UTC.
# USER AGENT: Mozilla/5.0 (Windows NT 10.0; Win64; x64) AppleWebKit/537.36 (KHTML, like Gecko) Chrome/58.0.3029.110 Safari/537.36
# Design number was non-random = 3
#
# Columns below this comment are as follows:
# 1. Time results were received.
# 2. MD5 hash of participant's IP address.
# 3. Controller name.
# 4. Item number.
# 5. Element number.
# 6. Type.
# 7. Group.
# 8. Field name.
# 9. Field value.
1496742918,be84b3449459f40bcac953b107957d24,Form,2,0,intro,NULL,name,ND
1496742918,be84b3449459f40bcac953b107957d24,Form,2,0,intro,NULL,age,25
1496742918,be84b3449459f40bcac953b107957d24,Form,2,0,intro,NULL,anadil,yes
1496742918,be84b3449459f40bcac953b107957d24,Form,2,0,intro,NULL,_REACTION_TIME_,60973
1496742918,be84b3449459f40bcac953b107957d24,Form,3,0,intro,NULL,_REACTION_TIME_,18543
1496742918,be84b3449459f40bcac953b107957d24,Form,4,0,intro,NULL,_REACTION_TIME_,4711
# Columns below this comment are as follows:
# 1. Time results were received.
# 2. MD5 hash of participant's IP address.
# 3. Controller name.
# 4. Item number.
# 5. Element number.
# 6. Type.
# 7. Group.
# 8. Question (NULL if none).
# 9. Answer.
# 10. Whether or not answer was correct (NULL if N/A).
# 11. Time taken to answer.
1496742918,be84b3449459f40bcac953b107957d24,Question,31,1,p,NULL,NULL,mi,1,1984
1496742918,be84b3449459f40bcac953b107957d24,Question,30,1,p,NULL,NULL,arayacak,0,3215
1496742918,be84b3449459f40bcac953b107957d24,Question,32,1,p,NULL,NULL,kahveleri,0,1856
1496742918,be84b3449459f40bcac953b107957d24,Question,29,1,p,NULL,NULL,barış,1,1843
# The lines below this comment are in groups of 2.
# The formats of the lines in each of these groups are as follows:
#
# Line 1:
#     Col. 1: Time results were received.
#     Col. 2: MD5 hash of participant's IP address.
#     Col. 3: Controller name.
#     Col. 4: Item number.
#     Col. 5: Element number.
#     Col. 6: Type.
#     Col. 7: Group.
#     Col. 8: Field name.
#     Col. 9: Field value.
# Line 2:
#     Col. 1: Time results were received.
#     Col. 2: MD5 hash of participant's IP address.
#     Col. 3: Controller name.
#     Col. 4: Item number.
#     Col. 5: Element number.
#     Col. 6: Type.
#     Col. 7: Group.
#     Col. 8: Question (NULL if none).
#     Col. 9: Answer.
#     Col. 10: Whether or not answer was correct (NULL if N/A).
#     Col. 11: Time taken to answer.
1496742918,be84b3449459f40bcac953b107957d24,Form,5,0,devam,NULL,_REACTION_TIME_,6246
1496742918,be84b3449459f40bcac953b107957d24,Question,12,1,e,NULL,NULL,düşünüyor,0,1600
# Columns below this comment are as follows:
# 1. Time results were received.
# 2. MD5 hash of participant's IP address.
# 3. Controller name.
# 4. Item number.
# 5. Element number.
# 6. Type.
# 7. Group.
# 8. Question (NULL if none).
# 9. Answer.
# 10. Whether or not answer was correct (NULL if N/A).
# 11. Time taken to answer.
1496742918,be84b3449459f40bcac953b107957d24,Question,20,1,f,NULL,NULL,gördü,0,2452
1496742918,be84b3449459f40bcac953b107957d24,Question,17,1,e,NULL,NULL,biliyor,1,1337
1496742918,be84b3449459f40bcac953b107957d24,Question,27,1,f,NULL,NULL,fark etti,1,2811
1496742918,be84b3449459f40bcac953b107957d24,Question,15,1,e,NULL,NULL,sanıyor,1,2127
1496742918,be84b3449459f40bcac953b107957d24,Question,21,1,f,NULL,NULL,gördü,1,2544
1496742918,be84b3449459f40bcac953b107957d24,Question,16,1,e,NULL,NULL,düşünüyor,0,1780
1496742918,be84b3449459f40bcac953b107957d24,Question,23,1,f,NULL,NULL,gördü,1,2580
1496742918,be84b3449459f40bcac953b107957d24,Question,18,1,e,NULL,NULL,düşünüyor,1,2570
1496742918,be84b3449459f40bcac953b107957d24,Question,28,1,f,NULL,NULL,fark etti,0,2672
1496742918,be84b3449459f40bcac953b107957d24,Question,9,1,e,NULL,NULL,sanıyor,0,1888
1496742918,be84b3449459f40bcac953b107957d24,Question,7,1,e,NULL,NULL,sanıyor,1,1031
1496742918,be84b3449459f40bcac953b107957d24,Question,24,1,f,NULL,NULL,unuttu,1,1879
1496742918,be84b3449459f40bcac953b107957d24,Question,11,1,e,NULL,NULL,sanıyor,1,2266
1496742918,be84b3449459f40bcac953b107957d24,Question,22,1,f,NULL,NULL,gördü,0,1834
1496742918,be84b3449459f40bcac953b107957d24,Question,14,1,e,NULL,NULL,düşünüyor,1,1787
1496742918,be84b3449459f40bcac953b107957d24,Question,26,1,f,NULL,NULL,fark etti,0,1856
1496742918,be84b3449459f40bcac953b107957d24,Question,8,1,e,NULL,NULL,hatırlıyor,1,1609
1496742918,be84b3449459f40bcac953b107957d24,Question,19,1,f,NULL,NULL,özledi,0,1668
1496742918,be84b3449459f40bcac953b107957d24,Question,10,1,e,NULL,NULL,hatırlıyor,0,1320
1496742918,be84b3449459f40bcac953b107957d24,Question,25,1,f,NULL,NULL,fark etti,1,1981
1496742918,be84b3449459f40bcac953b107957d24,Question,13,1,e,NULL,NULL,sanıyor,0,1837
# The lines below this comment are in groups of 2.
# The formats of the lines in each of these groups are as follows:
#
# Line 1:
#     Col. 1: Time results were received.
#     Col. 2: MD5 hash of participant's IP address.
#     Col. 3: Controller name.
#     Col. 4: Item number.
#     Col. 5: Element number.
#     Col. 6: Type.
#     Col. 7: Group.
#     Col. 8: Field name.
#     Col. 9: Field value.
# Line 2:
#     Col. 1: Time results were received.
#     Col. 2: MD5 hash of participant's IP address.
#     Col. 3: Controller name.
#     Col. 4: Item number.
#     Col. 5: Element number.
#     Col. 6: Type.
#     Col. 7: Group.
#     Col. 8: Question (NULL if none).
#     Col. 9: Answer.
#     Col. 10: Whether or not answer was correct (NULL if N/A).
#     Col. 11: Time taken to answer.
1496742918,be84b3449459f40bcac953b107957d24,Form,6,0,son,NULL,_REACTION_TIME_,10346
1496742918,be84b3449459f40bcac953b107957d24,Question,33,1,n,NULL,NULL,Ayşe'nin düşüncesi 'yağmur yağmıyor' şeklinde.,1,9103
# Columns below this comment are as follows:
# 1. Time results were received.
# 2. MD5 hash of participant's IP address.
# 3. Controller name.
# 4. Item number.
# 5. Element number.
# 6. Type.
# 7. Group.
# 8. Question (NULL if none).
# 9. Answer.
# 10. Whether or not answer was correct (NULL if N/A).
# 11. Time taken to answer.
1496742918,be84b3449459f40bcac953b107957d24,Question,35,1,c,NULL,NULL,Öğretmen Paris'te yaşamış.,1,2086
1496742918,be84b3449459f40bcac953b107957d24,Question,34,1,n,NULL,NULL,Başkanın düşüncesi 'ortak bir karara varmak zor olmayacak' şeklinde.,1,5395
1496742918,be84b3449459f40bcac953b107957d24,Question,36,1,c,NULL,NULL,Referandumu yüzde yüzle kazanmış.,1,3398
#
# Results on Tuesday June 06 2017 11:01:03 UTC.
# USER AGENT: Mozilla/5.0 (Macintosh; Intel Mac OS X 10_12_4) AppleWebKit/537.36 (KHTML, like Gecko) Chrome/58.0.3029.110 Safari/537.36
# Design number was non-random = 4
#
# Columns below this comment are as follows:
# 1. Time results were received.
# 2. MD5 hash of participant's IP address.
# 3. Controller name.
# 4. Item number.
# 5. Element number.
# 6. Type.
# 7. Group.
# 8. Field name.
# 9. Field value.
1496746863,ea3c07ad867a89aabde904980f2eb3c5,Form,2,0,intro,NULL,name,a o
1496746863,ea3c07ad867a89aabde904980f2eb3c5,Form,2,0,intro,NULL,age,40
1496746863,ea3c07ad867a89aabde904980f2eb3c5,Form,2,0,intro,NULL,anadil,yes
1496746863,ea3c07ad867a89aabde904980f2eb3c5,Form,2,0,intro,NULL,_REACTION_TIME_,54941
1496746863,ea3c07ad867a89aabde904980f2eb3c5,Form,3,0,intro,NULL,_REACTION_TIME_,26441
1496746863,ea3c07ad867a89aabde904980f2eb3c5,Form,4,0,intro,NULL,_REACTION_TIME_,6779
# Columns below this comment are as follows:
# 1. Time results were received.
# 2. MD5 hash of participant's IP address.
# 3. Controller name.
# 4. Item number.
# 5. Element number.
# 6. Type.
# 7. Group.
# 8. Question (NULL if none).
# 9. Answer.
# 10. Whether or not answer was correct (NULL if N/A).
# 11. Time taken to answer.
1496746863,ea3c07ad867a89aabde904980f2eb3c5,Question,30,1,p,NULL,NULL,kaçırdı,1,5402
1496746863,ea3c07ad867a89aabde904980f2eb3c5,Question,32,1,p,NULL,NULL,kitapları,1,2660
1496746863,ea3c07ad867a89aabde904980f2eb3c5,Question,31,1,p,NULL,NULL,mi,1,2803
1496746863,ea3c07ad867a89aabde904980f2eb3c5,Question,29,1,p,NULL,NULL,savaş,0,7624
# The lines below this comment are in groups of 2.
# The formats of the lines in each of these groups are as follows:
#
# Line 1:
#     Col. 1: Time results were received.
#     Col. 2: MD5 hash of participant's IP address.
#     Col. 3: Controller name.
#     Col. 4: Item number.
#     Col. 5: Element number.
#     Col. 6: Type.
#     Col. 7: Group.
#     Col. 8: Field name.
#     Col. 9: Field value.
# Line 2:
#     Col. 1: Time results were received.
#     Col. 2: MD5 hash of participant's IP address.
#     Col. 3: Controller name.
#     Col. 4: Item number.
#     Col. 5: Element number.
#     Col. 6: Type.
#     Col. 7: Group.
#     Col. 8: Question (NULL if none).
#     Col. 9: Answer.
#     Col. 10: Whether or not answer was correct (NULL if N/A).
#     Col. 11: Time taken to answer.
1496746863,ea3c07ad867a89aabde904980f2eb3c5,Form,5,0,devam,NULL,_REACTION_TIME_,2553
1496746863,ea3c07ad867a89aabde904980f2eb3c5,Question,17,1,e,NULL,NULL,sanıyor,0,1417
# Columns below this comment are as follows:
# 1. Time results were received.
# 2. MD5 hash of participant's IP address.
# 3. Controller name.
# 4. Item number.
# 5. Element number.
# 6. Type.
# 7. Group.
# 8. Question (NULL if none).
# 9. Answer.
# 10. Whether or not answer was correct (NULL if N/A).
# 11. Time taken to answer.
1496746863,ea3c07ad867a89aabde904980f2eb3c5,Question,11,1,e,NULL,NULL,sanıyor,1,1586
1496746863,ea3c07ad867a89aabde904980f2eb3c5,Question,22,1,f,NULL,NULL,özledi,1,2764
1496746863,ea3c07ad867a89aabde904980f2eb3c5,Question,7,1,e,NULL,NULL,sanıyor,1,1388
1496746863,ea3c07ad867a89aabde904980f2eb3c5,Question,24,1,f,NULL,NULL,fark etti,0,3195
1496746863,ea3c07ad867a89aabde904980f2eb3c5,Question,9,1,e,NULL,NULL,biliyor,1,2633
1496746863,ea3c07ad867a89aabde904980f2eb3c5,Question,28,1,f,NULL,NULL,fark etti,0,3413
1496746863,ea3c07ad867a89aabde904980f2eb3c5,Question,16,1,e,NULL,NULL,hatırlıyor,1,3533
1496746863,ea3c07ad867a89aabde904980f2eb3c5,Question,19,1,f,NULL,NULL,özledi,0,5489
1496746863,ea3c07ad867a89aabde904980f2eb3c5,Question,10,1,e,NULL,NULL,hatırlıyor,0,4752
1496746863,ea3c07ad867a89aabde904980f2eb3c5,Question,21,1,f,NULL,NULL,gördü,1,1940
1496746863,ea3c07ad867a89aabde904980f2eb3c5,Question,14,1,e,NULL,NULL,düşünüyor,1,1676
1496746863,ea3c07ad867a89aabde904980f2eb3c5,Question,8,1,e,NULL,NULL,düşünüyor,0,1866
1496746863,ea3c07ad867a89aabde904980f2eb3c5,Question,25,1,f,NULL,NULL,fark etti,1,2505
1496746863,ea3c07ad867a89aabde904980f2eb3c5,Question,12,1,e,NULL,NULL,hatırlıyor,1,1283
1496746863,ea3c07ad867a89aabde904980f2eb3c5,Question,27,1,f,NULL,NULL,fark etti,1,3212
1496746863,ea3c07ad867a89aabde904980f2eb3c5,Question,15,1,e,NULL,NULL,biliyor,0,697
1496746863,ea3c07ad867a89aabde904980f2eb3c5,Question,26,1,f,NULL,NULL,fark etti,0,2855
1496746863,ea3c07ad867a89aabde904980f2eb3c5,Question,18,1,e,NULL,NULL,hatırlıyor,0,3178
1496746863,ea3c07ad867a89aabde904980f2eb3c5,Question,23,1,f,NULL,NULL,gördü,1,3345
1496746863,ea3c07ad867a89aabde904980f2eb3c5,Question,13,1,e,NULL,NULL,biliyor,1,1300
1496746863,ea3c07ad867a89aabde904980f2eb3c5,Question,20,1,f,NULL,NULL,gördü,0,5320
# The lines below this comment are in groups of 2.
# The formats of the lines in each of these groups are as follows:
#
# Line 1:
#     Col. 1: Time results were received.
#     Col. 2: MD5 hash of participant's IP address.
#     Col. 3: Controller name.
#     Col. 4: Item number.
#     Col. 5: Element number.
#     Col. 6: Type.
#     Col. 7: Group.
#     Col. 8: Field name.
#     Col. 9: Field value.
# Line 2:
#     Col. 1: Time results were received.
#     Col. 2: MD5 hash of participant's IP address.
#     Col. 3: Controller name.
#     Col. 4: Item number.
#     Col. 5: Element number.
#     Col. 6: Type.
#     Col. 7: Group.
#     Col. 8: Question (NULL if none).
#     Col. 9: Answer.
#     Col. 10: Whether or not answer was correct (NULL if N/A).
#     Col. 11: Time taken to answer.
1496746863,ea3c07ad867a89aabde904980f2eb3c5,Form,6,0,son,NULL,_REACTION_TIME_,14018
1496746863,ea3c07ad867a89aabde904980f2eb3c5,Question,33,1,n,NULL,NULL,Ayşe'nin düşüncesi 'yağmur yağmıyor' şeklinde.,1,18360
# Columns below this comment are as follows:
# 1. Time results were received.
# 2. MD5 hash of participant's IP address.
# 3. Controller name.
# 4. Item number.
# 5. Element number.
# 6. Type.
# 7. Group.
# 8. Question (NULL if none).
# 9. Answer.
# 10. Whether or not answer was correct (NULL if N/A).
# 11. Time taken to answer.
1496746863,ea3c07ad867a89aabde904980f2eb3c5,Question,36,1,c,NULL,NULL,Referandumu yüzde yüzle kazanmış.,1,7975
1496746863,ea3c07ad867a89aabde904980f2eb3c5,Question,34,1,n,NULL,NULL,Başkanın düşüncesi 'ortak bir karara varmak zor olmayacak' şeklinde.,1,7475
1496746863,ea3c07ad867a89aabde904980f2eb3c5,Question,35,1,c,NULL,NULL,Öğretmen Paris'te yaşamış.,1,2146
#
# Results on Tuesday June 06 2017 11:06:43 UTC.
# USER AGENT: Mozilla/5.0 (Windows NT 10.0) AppleWebKit/537.36 (KHTML, like Gecko) Chrome/58.0.3029.110 Safari/537.36
# Design number was non-random = 5
#
# Columns below this comment are as follows:
# 1. Time results were received.
# 2. MD5 hash of participant's IP address.
# 3. Controller name.
# 4. Item number.
# 5. Element number.
# 6. Type.
# 7. Group.
# 8. Field name.
# 9. Field value.
1496747203,46e51fc39be583649069306bbee08eec,Form,2,0,intro,NULL,name,MSB
1496747203,46e51fc39be583649069306bbee08eec,Form,2,0,intro,NULL,age,32
1496747203,46e51fc39be583649069306bbee08eec,Form,2,0,intro,NULL,anadil,yes
1496747203,46e51fc39be583649069306bbee08eec,Form,2,0,intro,NULL,_REACTION_TIME_,63115
1496747203,46e51fc39be583649069306bbee08eec,Form,3,0,intro,NULL,_REACTION_TIME_,11188
1496747203,46e51fc39be583649069306bbee08eec,Form,4,0,intro,NULL,_REACTION_TIME_,4780
# Columns below this comment are as follows:
# 1. Time results were received.
# 2. MD5 hash of participant's IP address.
# 3. Controller name.
# 4. Item number.
# 5. Element number.
# 6. Type.
# 7. Group.
# 8. Question (NULL if none).
# 9. Answer.
# 10. Whether or not answer was correct (NULL if N/A).
# 11. Time taken to answer.
1496747203,46e51fc39be583649069306bbee08eec,Question,32,1,p,NULL,NULL,kahveleri,0,1949
1496747203,46e51fc39be583649069306bbee08eec,Question,29,1,p,NULL,NULL,savaş,0,2487
1496747203,46e51fc39be583649069306bbee08eec,Question,31,1,p,NULL,NULL,mi,1,1620
1496747203,46e51fc39be583649069306bbee08eec,Question,30,1,p,NULL,NULL,arayacak,0,3143
# The lines below this comment are in groups of 2.
# The formats of the lines in each of these groups are as follows:
#
# Line 1:
#     Col. 1: Time results were received.
#     Col. 2: MD5 hash of participant's IP address.
#     Col. 3: Controller name.
#     Col. 4: Item number.
#     Col. 5: Element number.
#     Col. 6: Type.
#     Col. 7: Group.
#     Col. 8: Field name.
#     Col. 9: Field value.
# Line 2:
#     Col. 1: Time results were received.
#     Col. 2: MD5 hash of participant's IP address.
#     Col. 3: Controller name.
#     Col. 4: Item number.
#     Col. 5: Element number.
#     Col. 6: Type.
#     Col. 7: Group.
#     Col. 8: Question (NULL if none).
#     Col. 9: Answer.
#     Col. 10: Whether or not answer was correct (NULL if N/A).
#     Col. 11: Time taken to answer.
1496747203,46e51fc39be583649069306bbee08eec,Form,5,0,devam,NULL,_REACTION_TIME_,1628
1496747203,46e51fc39be583649069306bbee08eec,Question,15,1,e,NULL,NULL,sanıyor,1,3114
# Columns below this comment are as follows:
# 1. Time results were received.
# 2. MD5 hash of participant's IP address.
# 3. Controller name.
# 4. Item number.
# 5. Element number.
# 6. Type.
# 7. Group.
# 8. Question (NULL if none).
# 9. Answer.
# 10. Whether or not answer was correct (NULL if N/A).
# 11. Time taken to answer.
1496747203,46e51fc39be583649069306bbee08eec,Question,10,1,e,NULL,NULL,düşünüyor,1,1682
1496747203,46e51fc39be583649069306bbee08eec,Question,20,1,f,NULL,NULL,gördü,0,1692
1496747203,46e51fc39be583649069306bbee08eec,Question,12,1,e,NULL,NULL,hatırlıyor,1,5012
1496747203,46e51fc39be583649069306bbee08eec,Question,26,1,f,NULL,NULL,fark etti,0,2475
1496747203,46e51fc39be583649069306bbee08eec,Question,7,1,e,NULL,NULL,biliyor,0,3678
1496747203,46e51fc39be583649069306bbee08eec,Question,22,1,f,NULL,NULL,gördü,0,3153
1496747203,46e51fc39be583649069306bbee08eec,Question,9,1,e,NULL,NULL,sanıyor,0,3187
1496747203,46e51fc39be583649069306bbee08eec,Question,24,1,f,NULL,NULL,fark etti,0,3856
1496747203,46e51fc39be583649069306bbee08eec,Question,8,1,e,NULL,NULL,düşünüyor,0,2146
1496747203,46e51fc39be583649069306bbee08eec,Question,27,1,f,NULL,NULL,fark etti,1,3342
1496747203,46e51fc39be583649069306bbee08eec,Question,11,1,e,NULL,NULL,sanıyor,1,6077
1496747203,46e51fc39be583649069306bbee08eec,Question,16,1,e,NULL,NULL,düşünüyor,0,2229
1496747203,46e51fc39be583649069306bbee08eec,Question,28,1,f,NULL,NULL,fark etti,0,2237
1496747203,46e51fc39be583649069306bbee08eec,Question,18,1,e,NULL,NULL,düşünüyor,1,1483
1496747203,46e51fc39be583649069306bbee08eec,Question,19,1,f,NULL,NULL,gördü,1,7233
1496747203,46e51fc39be583649069306bbee08eec,Question,13,1,e,NULL,NULL,sanıyor,0,1839
1496747203,46e51fc39be583649069306bbee08eec,Question,21,1,f,NULL,NULL,özledi,0,1886
1496747203,46e51fc39be583649069306bbee08eec,Question,17,1,e,NULL,NULL,sanıyor,0,3744
1496747203,46e51fc39be583649069306bbee08eec,Question,25,1,f,NULL,NULL,fark etti,1,1825
1496747203,46e51fc39be583649069306bbee08eec,Question,14,1,e,NULL,NULL,hatırlıyor,0,1474
1496747203,46e51fc39be583649069306bbee08eec,Question,23,1,f,NULL,NULL,gördü,1,1650
# The lines below this comment are in groups of 2.
# The formats of the lines in each of these groups are as follows:
#
# Line 1:
#     Col. 1: Time results were received.
#     Col. 2: MD5 hash of participant's IP address.
#     Col. 3: Controller name.
#     Col. 4: Item number.
#     Col. 5: Element number.
#     Col. 6: Type.
#     Col. 7: Group.
#     Col. 8: Field name.
#     Col. 9: Field value.
# Line 2:
#     Col. 1: Time results were received.
#     Col. 2: MD5 hash of participant's IP address.
#     Col. 3: Controller name.
#     Col. 4: Item number.
#     Col. 5: Element number.
#     Col. 6: Type.
#     Col. 7: Group.
#     Col. 8: Question (NULL if none).
#     Col. 9: Answer.
#     Col. 10: Whether or not answer was correct (NULL if N/A).
#     Col. 11: Time taken to answer.
1496747203,46e51fc39be583649069306bbee08eec,Form,6,0,son,NULL,_REACTION_TIME_,10022
1496747203,46e51fc39be583649069306bbee08eec,Question,33,1,n,NULL,NULL,Ayşe'nin düşüncesi 'yağmur yağmıyor' şeklinde.,1,5743
# Columns below this comment are as follows:
# 1. Time results were received.
# 2. MD5 hash of participant's IP address.
# 3. Controller name.
# 4. Item number.
# 5. Element number.
# 6. Type.
# 7. Group.
# 8. Question (NULL if none).
# 9. Answer.
# 10. Whether or not answer was correct (NULL if N/A).
# 11. Time taken to answer.
1496747203,46e51fc39be583649069306bbee08eec,Question,35,1,c,NULL,NULL,Öğretmen Paris'te yaşamış.,1,3658
1496747203,46e51fc39be583649069306bbee08eec,Question,34,1,n,NULL,NULL,Başkanın düşüncesi 'ortak bir karara varmak zor olmayacak' şeklinde.,1,10714
1496747203,46e51fc39be583649069306bbee08eec,Question,36,1,c,NULL,NULL,Referandumu yüzde yüzle kazanmış.,1,3244
#
# Results on Tuesday June 06 2017 11:59:17 UTC.
# USER AGENT: Mozilla/5.0 (Windows NT 10.0; Win64; x64) AppleWebKit/537.36 (KHTML, like Gecko) Chrome/51.0.2704.79 Safari/537.36 Edge/14.14393
# Design number was non-random = 6
#
# Columns below this comment are as follows:
# 1. Time results were received.
# 2. MD5 hash of participant's IP address.
# 3. Controller name.
# 4. Item number.
# 5. Element number.
# 6. Type.
# 7. Group.
# 8. Field name.
# 9. Field value.
1496750358,0f931f5f558e5419f494b32994db645a,Form,2,0,intro,NULL,name,fk
1496750358,0f931f5f558e5419f494b32994db645a,Form,2,0,intro,NULL,age,32
1496750358,0f931f5f558e5419f494b32994db645a,Form,2,0,intro,NULL,anadil,yes
1496750358,0f931f5f558e5419f494b32994db645a,Form,2,0,intro,NULL,_REACTION_TIME_,19776
1496750358,0f931f5f558e5419f494b32994db645a,Form,3,0,intro,NULL,_REACTION_TIME_,61018
1496750358,0f931f5f558e5419f494b32994db645a,Form,4,0,intro,NULL,_REACTION_TIME_,5317
# Columns below this comment are as follows:
# 1. Time results were received.
# 2. MD5 hash of participant's IP address.
# 3. Controller name.
# 4. Item number.
# 5. Element number.
# 6. Type.
# 7. Group.
# 8. Question (NULL if none).
# 9. Answer.
# 10. Whether or not answer was correct (NULL if N/A).
# 11. Time taken to answer.
1496750358,0f931f5f558e5419f494b32994db645a,Question,32,1,p,NULL,NULL,kahveleri,0,6307
1496750358,0f931f5f558e5419f494b32994db645a,Question,31,1,p,NULL,NULL,mi,1,2532
1496750358,0f931f5f558e5419f494b32994db645a,Question,29,1,p,NULL,NULL,barış,1,2856
1496750358,0f931f5f558e5419f494b32994db645a,Question,30,1,p,NULL,NULL,arayacak,0,4916
# The lines below this comment are in groups of 2.
# The formats of the lines in each of these groups are as follows:
#
# Line 1:
#     Col. 1: Time results were received.
#     Col. 2: MD5 hash of participant's IP address.
#     Col. 3: Controller name.
#     Col. 4: Item number.
#     Col. 5: Element number.
#     Col. 6: Type.
#     Col. 7: Group.
#     Col. 8: Field name.
#     Col. 9: Field value.
# Line 2:
#     Col. 1: Time results were received.
#     Col. 2: MD5 hash of participant's IP address.
#     Col. 3: Controller name.
#     Col. 4: Item number.
#     Col. 5: Element number.
#     Col. 6: Type.
#     Col. 7: Group.
#     Col. 8: Question (NULL if none).
#     Col. 9: Answer.
#     Col. 10: Whether or not answer was correct (NULL if N/A).
#     Col. 11: Time taken to answer.
1496750358,0f931f5f558e5419f494b32994db645a,Form,5,0,devam,NULL,_REACTION_TIME_,3213
1496750358,0f931f5f558e5419f494b32994db645a,Question,12,1,e,NULL,NULL,düşünüyor,0,3968
# Columns below this comment are as follows:
# 1. Time results were received.
# 2. MD5 hash of participant's IP address.
# 3. Controller name.
# 4. Item number.
# 5. Element number.
# 6. Type.
# 7. Group.
# 8. Question (NULL if none).
# 9. Answer.
# 10. Whether or not answer was correct (NULL if N/A).
# 11. Time taken to answer.
1496750358,0f931f5f558e5419f494b32994db645a,Question,14,1,e,NULL,NULL,hatırlıyor,0,6378
1496750358,0f931f5f558e5419f494b32994db645a,Question,26,1,f,NULL,NULL,fark etti,0,1890
1496750358,0f931f5f558e5419f494b32994db645a,Question,17,1,e,NULL,NULL,sanıyor,0,5104
1496750358,0f931f5f558e5419f494b32994db645a,Question,21,1,f,NULL,NULL,gördü,1,3862
1496750358,0f931f5f558e5419f494b32994db645a,Question,15,1,e,NULL,NULL,biliyor,0,3206
1496750358,0f931f5f558e5419f494b32994db645a,Question,28,1,f,NULL,NULL,fark etti,0,2071
1496750358,0f931f5f558e5419f494b32994db645a,Question,7,1,e,NULL,NULL,biliyor,0,1806
1496750358,0f931f5f558e5419f494b32994db645a,Question,24,1,f,NULL,NULL,fark etti,0,3548
1496750358,0f931f5f558e5419f494b32994db645a,Question,18,1,e,NULL,NULL,düşünüyor,1,2892
1496750358,0f931f5f558e5419f494b32994db645a,Question,20,1,f,NULL,NULL,gördü,0,3655
1496750358,0f931f5f558e5419f494b32994db645a,Question,13,1,e,NULL,NULL,biliyor,1,1849
1496750358,0f931f5f558e5419f494b32994db645a,Question,11,1,e,NULL,NULL,sanıyor,1,1879
1496750358,0f931f5f558e5419f494b32994db645a,Question,22,1,f,NULL,NULL,gördü,0,2624
1496750358,0f931f5f558e5419f494b32994db645a,Question,16,1,e,NULL,NULL,düşünüyor,0,2619
1496750358,0f931f5f558e5419f494b32994db645a,Question,25,1,f,NULL,NULL,unuttu,0,1894
1496750358,0f931f5f558e5419f494b32994db645a,Question,10,1,e,NULL,NULL,düşünüyor,1,2437
1496750358,0f931f5f558e5419f494b32994db645a,Question,23,1,f,NULL,NULL,gördü,1,1402
1496750358,0f931f5f558e5419f494b32994db645a,Question,9,1,e,NULL,NULL,biliyor,1,1706
1496750358,0f931f5f558e5419f494b32994db645a,Question,19,1,f,NULL,NULL,özledi,0,1629
1496750358,0f931f5f558e5419f494b32994db645a,Question,8,1,e,NULL,NULL,düşünüyor,0,1541
1496750358,0f931f5f558e5419f494b32994db645a,Question,27,1,f,NULL,NULL,fark etti,1,3313
# The lines below this comment are in groups of 2.
# The formats of the lines in each of these groups are as follows:
#
# Line 1:
#     Col. 1: Time results were received.
#     Col. 2: MD5 hash of participant's IP address.
#     Col. 3: Controller name.
#     Col. 4: Item number.
#     Col. 5: Element number.
#     Col. 6: Type.
#     Col. 7: Group.
#     Col. 8: Field name.
#     Col. 9: Field value.
# Line 2:
#     Col. 1: Time results were received.
#     Col. 2: MD5 hash of participant's IP address.
#     Col. 3: Controller name.
#     Col. 4: Item number.
#     Col. 5: Element number.
#     Col. 6: Type.
#     Col. 7: Group.
#     Col. 8: Question (NULL if none).
#     Col. 9: Answer.
#     Col. 10: Whether or not answer was correct (NULL if N/A).
#     Col. 11: Time taken to answer.
1496750358,0f931f5f558e5419f494b32994db645a,Form,6,0,son,NULL,_REACTION_TIME_,10454
1496750358,0f931f5f558e5419f494b32994db645a,Question,33,1,n,NULL,NULL,Ayşe'nin düşüncesi 'yağmur yağmıyor' şeklinde.,1,10667
# Columns below this comment are as follows:
# 1. Time results were received.
# 2. MD5 hash of participant's IP address.
# 3. Controller name.
# 4. Item number.
# 5. Element number.
# 6. Type.
# 7. Group.
# 8. Question (NULL if none).
# 9. Answer.
# 10. Whether or not answer was correct (NULL if N/A).
# 11. Time taken to answer.
1496750358,0f931f5f558e5419f494b32994db645a,Question,36,1,c,NULL,NULL,Referandumu yüzde yüzle kazanmamış olabilir.,0,5636
1496750358,0f931f5f558e5419f494b32994db645a,Question,34,1,n,NULL,NULL,Başkanın düşüncesi 'ortak bir karara varmak zor olacak' şeklinde değil.,0,7323
1496750358,0f931f5f558e5419f494b32994db645a,Question,35,1,c,NULL,NULL,Öğretmen Paris'te yaşamış.,1,4294
#
# Results on Tuesday June 06 2017 15:53:10 UTC.
# USER AGENT: Mozilla/5.0 (Macintosh; Intel Mac OS X 10_12_4) AppleWebKit/537.36 (KHTML, like Gecko) Chrome/58.0.3029.110 Safari/537.36 OPR/45.0.2552.888
# Design number was non-random = 7
#
# Columns below this comment are as follows:
# 1. Time results were received.
# 2. MD5 hash of participant's IP address.
# 3. Controller name.
# 4. Item number.
# 5. Element number.
# 6. Type.
# 7. Group.
# 8. Field name.
# 9. Field value.
1496764390,e92fef04317033c9a23e008a461164b4,Form,2,0,intro,NULL,name,MO
1496764390,e92fef04317033c9a23e008a461164b4,Form,2,0,intro,NULL,age,27
1496764390,e92fef04317033c9a23e008a461164b4,Form,2,0,intro,NULL,anadil,yes
1496764390,e92fef04317033c9a23e008a461164b4,Form,2,0,intro,NULL,_REACTION_TIME_,50928
1496764390,e92fef04317033c9a23e008a461164b4,Form,3,0,intro,NULL,_REACTION_TIME_,19456
1496764390,e92fef04317033c9a23e008a461164b4,Form,4,0,intro,NULL,_REACTION_TIME_,11027
# Columns below this comment are as follows:
# 1. Time results were received.
# 2. MD5 hash of participant's IP address.
# 3. Controller name.
# 4. Item number.
# 5. Element number.
# 6. Type.
# 7. Group.
# 8. Question (NULL if none).
# 9. Answer.
# 10. Whether or not answer was correct (NULL if N/A).
# 11. Time taken to answer.
1496764390,e92fef04317033c9a23e008a461164b4,Question,29,1,p,NULL,NULL,savaş,0,13033
1496764390,e92fef04317033c9a23e008a461164b4,Question,32,1,p,NULL,NULL,kahveleri,0,1719
1496764390,e92fef04317033c9a23e008a461164b4,Question,30,1,p,NULL,NULL,arayacak,0,2636
1496764390,e92fef04317033c9a23e008a461164b4,Question,31,1,p,NULL,NULL,mi,1,1183
# The lines below this comment are in groups of 2.
# The formats of the lines in each of these groups are as follows:
#
# Line 1:
#     Col. 1: Time results were received.
#     Col. 2: MD5 hash of participant's IP address.
#     Col. 3: Controller name.
#     Col. 4: Item number.
#     Col. 5: Element number.
#     Col. 6: Type.
#     Col. 7: Group.
#     Col. 8: Field name.
#     Col. 9: Field value.
# Line 2:
#     Col. 1: Time results were received.
#     Col. 2: MD5 hash of participant's IP address.
#     Col. 3: Controller name.
#     Col. 4: Item number.
#     Col. 5: Element number.
#     Col. 6: Type.
#     Col. 7: Group.
#     Col. 8: Question (NULL if none).
#     Col. 9: Answer.
#     Col. 10: Whether or not answer was correct (NULL if N/A).
#     Col. 11: Time taken to answer.
1496764390,e92fef04317033c9a23e008a461164b4,Form,5,0,devam,NULL,_REACTION_TIME_,1955
1496764390,e92fef04317033c9a23e008a461164b4,Question,15,1,e,NULL,NULL,sanıyor,1,9451
# Columns below this comment are as follows:
# 1. Time results were received.
# 2. MD5 hash of participant's IP address.
# 3. Controller name.
# 4. Item number.
# 5. Element number.
# 6. Type.
# 7. Group.
# 8. Question (NULL if none).
# 9. Answer.
# 10. Whether or not answer was correct (NULL if N/A).
# 11. Time taken to answer.
1496764390,e92fef04317033c9a23e008a461164b4,Question,25,1,f,NULL,NULL,fark etti,1,2271
1496764390,e92fef04317033c9a23e008a461164b4,Question,10,1,e,NULL,NULL,hatırlıyor,0,2936
1496764390,e92fef04317033c9a23e008a461164b4,Question,28,1,f,NULL,NULL,fark etti,0,1746
1496764390,e92fef04317033c9a23e008a461164b4,Question,8,1,e,NULL,NULL,hatırlıyor,1,3342
1496764390,e92fef04317033c9a23e008a461164b4,Question,26,1,f,NULL,NULL,fark etti,0,1355
1496764390,e92fef04317033c9a23e008a461164b4,Question,12,1,e,NULL,NULL,hatırlıyor,1,1673
1496764390,e92fef04317033c9a23e008a461164b4,Question,23,1,f,NULL,NULL,özledi,0,10461
1496764390,e92fef04317033c9a23e008a461164b4,Question,16,1,e,NULL,NULL,hatırlıyor,1,1990
1496764390,e92fef04317033c9a23e008a461164b4,Question,20,1,f,NULL,NULL,gördü,0,2476
1496764390,e92fef04317033c9a23e008a461164b4,Question,7,1,e,NULL,NULL,sanıyor,1,1921
1496764390,e92fef04317033c9a23e008a461164b4,Question,17,1,e,NULL,NULL,biliyor,1,5576
1496764390,e92fef04317033c9a23e008a461164b4,Question,27,1,f,NULL,NULL,fark etti,1,2002
1496764390,e92fef04317033c9a23e008a461164b4,Question,11,1,e,NULL,NULL,sanıyor,1,1205
1496764390,e92fef04317033c9a23e008a461164b4,Question,22,1,f,NULL,NULL,gördü,0,2728
1496764390,e92fef04317033c9a23e008a461164b4,Question,13,1,e,NULL,NULL,sanıyor,0,1437
1496764390,e92fef04317033c9a23e008a461164b4,Question,19,1,f,NULL,NULL,gördü,1,2155
1496764390,e92fef04317033c9a23e008a461164b4,Question,18,1,e,NULL,NULL,düşünüyor,1,1511
1496764390,e92fef04317033c9a23e008a461164b4,Question,21,1,f,NULL,NULL,gördü,1,2315
1496764390,e92fef04317033c9a23e008a461164b4,Question,9,1,e,NULL,NULL,sanıyor,0,1761
1496764390,e92fef04317033c9a23e008a461164b4,Question,24,1,f,NULL,NULL,fark etti,0,1526
1496764390,e92fef04317033c9a23e008a461164b4,Question,14,1,e,NULL,NULL,hatırlıyor,0,1564
# The lines below this comment are in groups of 2.
# The formats of the lines in each of these groups are as follows:
#
# Line 1:
#     Col. 1: Time results were received.
#     Col. 2: MD5 hash of participant's IP address.
#     Col. 3: Controller name.
#     Col. 4: Item number.
#     Col. 5: Element number.
#     Col. 6: Type.
#     Col. 7: Group.
#     Col. 8: Field name.
#     Col. 9: Field value.
# Line 2:
#     Col. 1: Time results were received.
#     Col. 2: MD5 hash of participant's IP address.
#     Col. 3: Controller name.
#     Col. 4: Item number.
#     Col. 5: Element number.
#     Col. 6: Type.
#     Col. 7: Group.
#     Col. 8: Question (NULL if none).
#     Col. 9: Answer.
#     Col. 10: Whether or not answer was correct (NULL if N/A).
#     Col. 11: Time taken to answer.
1496764390,e92fef04317033c9a23e008a461164b4,Form,6,0,son,NULL,_REACTION_TIME_,11143
1496764390,e92fef04317033c9a23e008a461164b4,Question,35,1,c,NULL,NULL,Öğretmen Paris'te yaşamış.,1,7117
# Columns below this comment are as follows:
# 1. Time results were received.
# 2. MD5 hash of participant's IP address.
# 3. Controller name.
# 4. Item number.
# 5. Element number.
# 6. Type.
# 7. Group.
# 8. Question (NULL if none).
# 9. Answer.
# 10. Whether or not answer was correct (NULL if N/A).
# 11. Time taken to answer.
1496764390,e92fef04317033c9a23e008a461164b4,Question,34,1,n,NULL,NULL,Başkanın düşüncesi 'ortak bir karara varmak zor olacak' şeklinde değil.,0,47765
1496764390,e92fef04317033c9a23e008a461164b4,Question,36,1,c,NULL,NULL,Referandumu yüzde yüzle kazanmamış olabilir.,0,11095
1496764390,e92fef04317033c9a23e008a461164b4,Question,33,1,n,NULL,NULL,Ayşe'nin düşüncesi 'yağmur yağmıyor' şeklinde.,1,7347
#
# Results on Tuesday June 06 2017 17:40:01 UTC.
# USER AGENT: Mozilla/5.0 (Windows NT 6.3; WOW64; rv:53.0) Gecko/20100101 Firefox/53.0
# Design number was non-random = 8
#
# Columns below this comment are as follows:
# 1. Time results were received.
# 2. MD5 hash of participant's IP address.
# 3. Controller name.
# 4. Item number.
# 5. Element number.
# 6. Type.
# 7. Group.
# 8. Field name.
# 9. Field value.
1496770802,946b2a72c9418cbaf6657583d706b4f8,Form,2,0,intro,NULL,name,DB
1496770802,946b2a72c9418cbaf6657583d706b4f8,Form,2,0,intro,NULL,age,33
1496770802,946b2a72c9418cbaf6657583d706b4f8,Form,2,0,intro,NULL,anadil,yes
1496770802,946b2a72c9418cbaf6657583d706b4f8,Form,2,0,intro,NULL,_REACTION_TIME_,36560
1496770802,946b2a72c9418cbaf6657583d706b4f8,Form,3,0,intro,NULL,_REACTION_TIME_,9197
1496770802,946b2a72c9418cbaf6657583d706b4f8,Form,4,0,intro,NULL,_REACTION_TIME_,6092
# Columns below this comment are as follows:
# 1. Time results were received.
# 2. MD5 hash of participant's IP address.
# 3. Controller name.
# 4. Item number.
# 5. Element number.
# 6. Type.
# 7. Group.
# 8. Question (NULL if none).
# 9. Answer.
# 10. Whether or not answer was correct (NULL if N/A).
# 11. Time taken to answer.
1496770802,946b2a72c9418cbaf6657583d706b4f8,Question,32,1,p,NULL,NULL,kahveleri,0,9437
1496770802,946b2a72c9418cbaf6657583d706b4f8,Question,30,1,p,NULL,NULL,kaçırdı,1,7567
1496770802,946b2a72c9418cbaf6657583d706b4f8,Question,29,1,p,NULL,NULL,barış,1,2317
1496770802,946b2a72c9418cbaf6657583d706b4f8,Question,31,1,p,NULL,NULL,mi,1,2737
# The lines below this comment are in groups of 2.
# The formats of the lines in each of these groups are as follows:
#
# Line 1:
#     Col. 1: Time results were received.
#     Col. 2: MD5 hash of participant's IP address.
#     Col. 3: Controller name.
#     Col. 4: Item number.
#     Col. 5: Element number.
#     Col. 6: Type.
#     Col. 7: Group.
#     Col. 8: Field name.
#     Col. 9: Field value.
# Line 2:
#     Col. 1: Time results were received.
#     Col. 2: MD5 hash of participant's IP address.
#     Col. 3: Controller name.
#     Col. 4: Item number.
#     Col. 5: Element number.
#     Col. 6: Type.
#     Col. 7: Group.
#     Col. 8: Question (NULL if none).
#     Col. 9: Answer.
#     Col. 10: Whether or not answer was correct (NULL if N/A).
#     Col. 11: Time taken to answer.
1496770802,946b2a72c9418cbaf6657583d706b4f8,Form,5,0,devam,NULL,_REACTION_TIME_,2405
1496770802,946b2a72c9418cbaf6657583d706b4f8,Question,17,1,e,NULL,NULL,sanıyor,0,3495
# Columns below this comment are as follows:
# 1. Time results were received.
# 2. MD5 hash of participant's IP address.
# 3. Controller name.
# 4. Item number.
# 5. Element number.
# 6. Type.
# 7. Group.
# 8. Question (NULL if none).
# 9. Answer.
# 10. Whether or not answer was correct (NULL if N/A).
# 11. Time taken to answer.
1496770802,946b2a72c9418cbaf6657583d706b4f8,Question,7,1,e,NULL,NULL,sanıyor,1,5246
1496770802,946b2a72c9418cbaf6657583d706b4f8,Question,26,1,f,NULL,NULL,unuttu,1,5243
1496770802,946b2a72c9418cbaf6657583d706b4f8,Question,10,1,e,NULL,NULL,düşünüyor,1,5545
1496770802,946b2a72c9418cbaf6657583d706b4f8,Question,25,1,f,NULL,NULL,fark etti,1,4686
1496770802,946b2a72c9418cbaf6657583d706b4f8,Question,16,1,e,NULL,NULL,düşünüyor,0,2740
1496770802,946b2a72c9418cbaf6657583d706b4f8,Question,20,1,f,NULL,NULL,gördü,0,3009
1496770802,946b2a72c9418cbaf6657583d706b4f8,Question,13,1,e,NULL,NULL,biliyor,1,2296
1496770802,946b2a72c9418cbaf6657583d706b4f8,Question,19,1,f,NULL,NULL,özledi,0,2890
1496770802,946b2a72c9418cbaf6657583d706b4f8,Question,9,1,e,NULL,NULL,sanıyor,0,2159
1496770802,946b2a72c9418cbaf6657583d706b4f8,Question,21,1,f,NULL,NULL,özledi,0,3585
1496770802,946b2a72c9418cbaf6657583d706b4f8,Question,15,1,e,NULL,NULL,biliyor,0,3310
1496770802,946b2a72c9418cbaf6657583d706b4f8,Question,18,1,e,NULL,NULL,düşünüyor,1,1983
1496770802,946b2a72c9418cbaf6657583d706b4f8,Question,22,1,f,NULL,NULL,gördü,0,4568
1496770802,946b2a72c9418cbaf6657583d706b4f8,Question,11,1,e,NULL,NULL,sanıyor,1,3535
1496770802,946b2a72c9418cbaf6657583d706b4f8,Question,28,1,f,NULL,NULL,fark etti,0,1880
1496770802,946b2a72c9418cbaf6657583d706b4f8,Question,14,1,e,NULL,NULL,düşünüyor,1,1646
1496770802,946b2a72c9418cbaf6657583d706b4f8,Question,24,1,f,NULL,NULL,fark etti,0,1608
1496770802,946b2a72c9418cbaf6657583d706b4f8,Question,8,1,e,NULL,NULL,düşünüyor,0,1725
1496770802,946b2a72c9418cbaf6657583d706b4f8,Question,23,1,f,NULL,NULL,gördü,1,6219
1496770802,946b2a72c9418cbaf6657583d706b4f8,Question,12,1,e,NULL,NULL,düşünüyor,0,1822
1496770802,946b2a72c9418cbaf6657583d706b4f8,Question,27,1,f,NULL,NULL,fark etti,1,5355
# The lines below this comment are in groups of 2.
# The formats of the lines in each of these groups are as follows:
#
# Line 1:
#     Col. 1: Time results were received.
#     Col. 2: MD5 hash of participant's IP address.
#     Col. 3: Controller name.
#     Col. 4: Item number.
#     Col. 5: Element number.
#     Col. 6: Type.
#     Col. 7: Group.
#     Col. 8: Field name.
#     Col. 9: Field value.
# Line 2:
#     Col. 1: Time results were received.
#     Col. 2: MD5 hash of participant's IP address.
#     Col. 3: Controller name.
#     Col. 4: Item number.
#     Col. 5: Element number.
#     Col. 6: Type.
#     Col. 7: Group.
#     Col. 8: Question (NULL if none).
#     Col. 9: Answer.
#     Col. 10: Whether or not answer was correct (NULL if N/A).
#     Col. 11: Time taken to answer.
1496770802,946b2a72c9418cbaf6657583d706b4f8,Form,6,0,son,NULL,_REACTION_TIME_,8541
1496770802,946b2a72c9418cbaf6657583d706b4f8,Question,35,1,c,NULL,NULL,Öğretmen Paris'te yaşamış.,1,14468
# Columns below this comment are as follows:
# 1. Time results were received.
# 2. MD5 hash of participant's IP address.
# 3. Controller name.
# 4. Item number.
# 5. Element number.
# 6. Type.
# 7. Group.
# 8. Question (NULL if none).
# 9. Answer.
# 10. Whether or not answer was correct (NULL if N/A).
# 11. Time taken to answer.
1496770802,946b2a72c9418cbaf6657583d706b4f8,Question,33,1,n,NULL,NULL,Ayşe'nin düşüncesi 'yağmur yağmıyor' şeklinde.,1,4977
1496770802,946b2a72c9418cbaf6657583d706b4f8,Question,36,1,c,NULL,NULL,Referandumu yüzde yüzle kazanmış.,1,7844
1496770802,946b2a72c9418cbaf6657583d706b4f8,Question,34,1,n,NULL,NULL,Başkanın düşüncesi 'ortak bir karara varmak zor olmayacak' şeklinde.,1,3890
#
# Results on Tuesday June 06 2017 18:13:41 UTC.
# USER AGENT: Mozilla/5.0 (Windows NT 10.0; Win64; x64) AppleWebKit/537.36 (KHTML, like Gecko) Chrome/58.0.3029.110 Safari/537.36
# Design number was non-random = 9
#
# Columns below this comment are as follows:
# 1. Time results were received.
# 2. MD5 hash of participant's IP address.
# 3. Controller name.
# 4. Item number.
# 5. Element number.
# 6. Type.
# 7. Group.
# 8. Field name.
# 9. Field value.
1496772821,5273121b85e28d52513332969ba5a527,Form,2,0,intro,NULL,name,h e
1496772821,5273121b85e28d52513332969ba5a527,Form,2,0,intro,NULL,age,30
1496772821,5273121b85e28d52513332969ba5a527,Form,2,0,intro,NULL,anadil,yes
1496772821,5273121b85e28d52513332969ba5a527,Form,2,0,intro,NULL,_REACTION_TIME_,10196
1496772821,5273121b85e28d52513332969ba5a527,Form,3,0,intro,NULL,_REACTION_TIME_,24654
1496772821,5273121b85e28d52513332969ba5a527,Form,4,0,intro,NULL,_REACTION_TIME_,6210
# Columns below this comment are as follows:
# 1. Time results were received.
# 2. MD5 hash of participant's IP address.
# 3. Controller name.
# 4. Item number.
# 5. Element number.
# 6. Type.
# 7. Group.
# 8. Question (NULL if none).
# 9. Answer.
# 10. Whether or not answer was correct (NULL if N/A).
# 11. Time taken to answer.
1496772821,5273121b85e28d52513332969ba5a527,Question,30,1,p,NULL,NULL,kaçırdı,1,5636
1496772821,5273121b85e28d52513332969ba5a527,Question,29,1,p,NULL,NULL,savaş,0,5673
1496772821,5273121b85e28d52513332969ba5a527,Question,31,1,p,NULL,NULL,mi,1,2878
1496772821,5273121b85e28d52513332969ba5a527,Question,32,1,p,NULL,NULL,kahveleri,0,2899
# The lines below this comment are in groups of 2.
# The formats of the lines in each of these groups are as follows:
#
# Line 1:
#     Col. 1: Time results were received.
#     Col. 2: MD5 hash of participant's IP address.
#     Col. 3: Controller name.
#     Col. 4: Item number.
#     Col. 5: Element number.
#     Col. 6: Type.
#     Col. 7: Group.
#     Col. 8: Field name.
#     Col. 9: Field value.
# Line 2:
#     Col. 1: Time results were received.
#     Col. 2: MD5 hash of participant's IP address.
#     Col. 3: Controller name.
#     Col. 4: Item number.
#     Col. 5: Element number.
#     Col. 6: Type.
#     Col. 7: Group.
#     Col. 8: Question (NULL if none).
#     Col. 9: Answer.
#     Col. 10: Whether or not answer was correct (NULL if N/A).
#     Col. 11: Time taken to answer.
1496772821,5273121b85e28d52513332969ba5a527,Form,5,0,devam,NULL,_REACTION_TIME_,2726
1496772821,5273121b85e28d52513332969ba5a527,Question,7,1,e,NULL,NULL,sanıyor,1,3318
# Columns below this comment are as follows:
# 1. Time results were received.
# 2. MD5 hash of participant's IP address.
# 3. Controller name.
# 4. Item number.
# 5. Element number.
# 6. Type.
# 7. Group.
# 8. Question (NULL if none).
# 9. Answer.
# 10. Whether or not answer was correct (NULL if N/A).
# 11. Time taken to answer.
1496772821,5273121b85e28d52513332969ba5a527,Question,17,1,e,NULL,NULL,biliyor,1,3412
1496772821,5273121b85e28d52513332969ba5a527,Question,19,1,f,NULL,NULL,gördü,1,3854
1496772821,5273121b85e28d52513332969ba5a527,Question,16,1,e,NULL,NULL,düşünüyor,0,9642
1496772821,5273121b85e28d52513332969ba5a527,Question,20,1,f,NULL,NULL,özledi,1,5220
1496772821,5273121b85e28d52513332969ba5a527,Question,9,1,e,NULL,NULL,sanıyor,0,7204
1496772821,5273121b85e28d52513332969ba5a527,Question,24,1,f,NULL,NULL,unuttu,1,5112
1496772821,5273121b85e28d52513332969ba5a527,Question,8,1,e,NULL,NULL,düşünüyor,0,12912
1496772821,5273121b85e28d52513332969ba5a527,Question,23,1,f,NULL,NULL,gördü,1,6546
1496772821,5273121b85e28d52513332969ba5a527,Question,14,1,e,NULL,NULL,hatırlıyor,0,7361
1496772821,5273121b85e28d52513332969ba5a527,Question,27,1,f,NULL,NULL,fark etti,1,5031
1496772821,5273121b85e28d52513332969ba5a527,Question,15,1,e,NULL,NULL,sanıyor,1,1527
1496772821,5273121b85e28d52513332969ba5a527,Question,13,1,e,NULL,NULL,biliyor,1,1893
1496772821,5273121b85e28d52513332969ba5a527,Question,25,1,f,NULL,NULL,fark etti,1,10162
1496772821,5273121b85e28d52513332969ba5a527,Question,10,1,e,NULL,NULL,düşünüyor,1,2971
1496772821,5273121b85e28d52513332969ba5a527,Question,28,1,f,NULL,NULL,fark etti,0,7959
1496772821,5273121b85e28d52513332969ba5a527,Question,18,1,e,NULL,NULL,hatırlıyor,0,6790
1496772821,5273121b85e28d52513332969ba5a527,Question,26,1,f,NULL,NULL,fark etti,0,1890
1496772821,5273121b85e28d52513332969ba5a527,Question,11,1,e,NULL,NULL,sanıyor,1,1810
1496772821,5273121b85e28d52513332969ba5a527,Question,22,1,f,NULL,NULL,özledi,1,2880
1496772821,5273121b85e28d52513332969ba5a527,Question,12,1,e,NULL,NULL,hatırlıyor,1,2127
1496772821,5273121b85e28d52513332969ba5a527,Question,21,1,f,NULL,NULL,özledi,0,7855
# The lines below this comment are in groups of 2.
# The formats of the lines in each of these groups are as follows:
#
# Line 1:
#     Col. 1: Time results were received.
#     Col. 2: MD5 hash of participant's IP address.
#     Col. 3: Controller name.
#     Col. 4: Item number.
#     Col. 5: Element number.
#     Col. 6: Type.
#     Col. 7: Group.
#     Col. 8: Field name.
#     Col. 9: Field value.
# Line 2:
#     Col. 1: Time results were received.
#     Col. 2: MD5 hash of participant's IP address.
#     Col. 3: Controller name.
#     Col. 4: Item number.
#     Col. 5: Element number.
#     Col. 6: Type.
#     Col. 7: Group.
#     Col. 8: Question (NULL if none).
#     Col. 9: Answer.
#     Col. 10: Whether or not answer was correct (NULL if N/A).
#     Col. 11: Time taken to answer.
1496772821,5273121b85e28d52513332969ba5a527,Form,6,0,son,NULL,_REACTION_TIME_,14724
1496772821,5273121b85e28d52513332969ba5a527,Question,35,1,c,NULL,NULL,Öğretmen Paris'te yaşamış.,1,6956
# Columns below this comment are as follows:
# 1. Time results were received.
# 2. MD5 hash of participant's IP address.
# 3. Controller name.
# 4. Item number.
# 5. Element number.
# 6. Type.
# 7. Group.
# 8. Question (NULL if none).
# 9. Answer.
# 10. Whether or not answer was correct (NULL if N/A).
# 11. Time taken to answer.
1496772821,5273121b85e28d52513332969ba5a527,Question,34,1,n,NULL,NULL,Başkanın düşüncesi 'ortak bir karara varmak zor olmayacak' şeklinde.,1,8494
1496772821,5273121b85e28d52513332969ba5a527,Question,36,1,c,NULL,NULL,Referandumu yüzde yüzle kazanmış.,1,3355
1496772821,5273121b85e28d52513332969ba5a527,Question,33,1,n,NULL,NULL,Ayşe'nin düşüncesi 'yağmur yağmıyor' şeklinde.,1,4762
#
# Results on Tuesday June 06 2017 22:23:28 UTC.
# USER AGENT: Mozilla/5.0 (Macintosh; Intel Mac OS X 10_12_3) AppleWebKit/602.4.8 (KHTML, like Gecko) Version/10.0.3 Safari/602.4.8
# Design number was non-random = 10
#
# Columns below this comment are as follows:
# 1. Time results were received.
# 2. MD5 hash of participant's IP address.
# 3. Controller name.
# 4. Item number.
# 5. Element number.
# 6. Type.
# 7. Group.
# 8. Field name.
# 9. Field value.
1496787809,52484c58da7eb718dd71fdbf6baeb235,Form,2,0,intro,NULL,name,MO
1496787809,52484c58da7eb718dd71fdbf6baeb235,Form,2,0,intro,NULL,age,24
1496787809,52484c58da7eb718dd71fdbf6baeb235,Form,2,0,intro,NULL,anadil,yes
1496787809,52484c58da7eb718dd71fdbf6baeb235,Form,2,0,intro,NULL,_REACTION_TIME_,86483
1496787809,52484c58da7eb718dd71fdbf6baeb235,Form,3,0,intro,NULL,_REACTION_TIME_,16082
1496787809,52484c58da7eb718dd71fdbf6baeb235,Form,4,0,intro,NULL,_REACTION_TIME_,8970
# Columns below this comment are as follows:
# 1. Time results were received.
# 2. MD5 hash of participant's IP address.
# 3. Controller name.
# 4. Item number.
# 5. Element number.
# 6. Type.
# 7. Group.
# 8. Question (NULL if none).
# 9. Answer.
# 10. Whether or not answer was correct (NULL if N/A).
# 11. Time taken to answer.
1496787809,52484c58da7eb718dd71fdbf6baeb235,Question,32,1,p,NULL,NULL,kahveleri,0,1943
1496787809,52484c58da7eb718dd71fdbf6baeb235,Question,29,1,p,NULL,NULL,barış,1,1451
1496787809,52484c58da7eb718dd71fdbf6baeb235,Question,30,1,p,NULL,NULL,arayacak,0,1855
1496787809,52484c58da7eb718dd71fdbf6baeb235,Question,31,1,p,NULL,NULL,mi,1,1317
# The lines below this comment are in groups of 2.
# The formats of the lines in each of these groups are as follows:
#
# Line 1:
#     Col. 1: Time results were received.
#     Col. 2: MD5 hash of participant's IP address.
#     Col. 3: Controller name.
#     Col. 4: Item number.
#     Col. 5: Element number.
#     Col. 6: Type.
#     Col. 7: Group.
#     Col. 8: Field name.
#     Col. 9: Field value.
# Line 2:
#     Col. 1: Time results were received.
#     Col. 2: MD5 hash of participant's IP address.
#     Col. 3: Controller name.
#     Col. 4: Item number.
#     Col. 5: Element number.
#     Col. 6: Type.
#     Col. 7: Group.
#     Col. 8: Question (NULL if none).
#     Col. 9: Answer.
#     Col. 10: Whether or not answer was correct (NULL if N/A).
#     Col. 11: Time taken to answer.
1496787809,52484c58da7eb718dd71fdbf6baeb235,Form,5,0,devam,NULL,_REACTION_TIME_,6970
1496787809,52484c58da7eb718dd71fdbf6baeb235,Question,14,1,e,NULL,NULL,hatırlıyor,0,2181
# Columns below this comment are as follows:
# 1. Time results were received.
# 2. MD5 hash of participant's IP address.
# 3. Controller name.
# 4. Item number.
# 5. Element number.
# 6. Type.
# 7. Group.
# 8. Question (NULL if none).
# 9. Answer.
# 10. Whether or not answer was correct (NULL if N/A).
# 11. Time taken to answer.
1496787809,52484c58da7eb718dd71fdbf6baeb235,Question,17,1,e,NULL,NULL,sanıyor,0,2156
1496787809,52484c58da7eb718dd71fdbf6baeb235,Question,21,1,f,NULL,NULL,özledi,0,1521
1496787809,52484c58da7eb718dd71fdbf6baeb235,Question,7,1,e,NULL,NULL,sanıyor,1,1670
1496787809,52484c58da7eb718dd71fdbf6baeb235,Question,20,1,f,NULL,NULL,gördü,0,4041
1496787809,52484c58da7eb718dd71fdbf6baeb235,Question,13,1,e,NULL,NULL,sanıyor,0,1546
1496787809,52484c58da7eb718dd71fdbf6baeb235,Question,23,1,f,NULL,NULL,gördü,1,2262
1496787809,52484c58da7eb718dd71fdbf6baeb235,Question,15,1,e,NULL,NULL,sanıyor,1,2361
1496787809,52484c58da7eb718dd71fdbf6baeb235,Question,22,1,f,NULL,NULL,gördü,0,2506
1496787809,52484c58da7eb718dd71fdbf6baeb235,Question,8,1,e,NULL,NULL,hatırlıyor,1,1804
1496787809,52484c58da7eb718dd71fdbf6baeb235,Question,25,1,f,NULL,NULL,fark etti,1,1866
1496787809,52484c58da7eb718dd71fdbf6baeb235,Question,11,1,e,NULL,NULL,sanıyor,1,1511
1496787809,52484c58da7eb718dd71fdbf6baeb235,Question,12,1,e,NULL,NULL,hatırlıyor,1,2520
1496787809,52484c58da7eb718dd71fdbf6baeb235,Question,28,1,f,NULL,NULL,fark etti,0,1682
1496787809,52484c58da7eb718dd71fdbf6baeb235,Question,10,1,e,NULL,NULL,düşünüyor,1,3158
1496787809,52484c58da7eb718dd71fdbf6baeb235,Question,24,1,f,NULL,NULL,unuttu,1,1831
1496787809,52484c58da7eb718dd71fdbf6baeb235,Question,18,1,e,NULL,NULL,düşünüyor,1,1925
1496787809,52484c58da7eb718dd71fdbf6baeb235,Question,27,1,f,NULL,NULL,fark etti,1,2440
1496787809,52484c58da7eb718dd71fdbf6baeb235,Question,16,1,e,NULL,NULL,hatırlıyor,1,1272
1496787809,52484c58da7eb718dd71fdbf6baeb235,Question,19,1,f,NULL,NULL,gördü,1,1558
1496787809,52484c58da7eb718dd71fdbf6baeb235,Question,9,1,e,NULL,NULL,sanıyor,0,1670
1496787809,52484c58da7eb718dd71fdbf6baeb235,Question,26,1,f,NULL,NULL,fark etti,0,2013
# The lines below this comment are in groups of 2.
# The formats of the lines in each of these groups are as follows:
#
# Line 1:
#     Col. 1: Time results were received.
#     Col. 2: MD5 hash of participant's IP address.
#     Col. 3: Controller name.
#     Col. 4: Item number.
#     Col. 5: Element number.
#     Col. 6: Type.
#     Col. 7: Group.
#     Col. 8: Field name.
#     Col. 9: Field value.
# Line 2:
#     Col. 1: Time results were received.
#     Col. 2: MD5 hash of participant's IP address.
#     Col. 3: Controller name.
#     Col. 4: Item number.
#     Col. 5: Element number.
#     Col. 6: Type.
#     Col. 7: Group.
#     Col. 8: Question (NULL if none).
#     Col. 9: Answer.
#     Col. 10: Whether or not answer was correct (NULL if N/A).
#     Col. 11: Time taken to answer.
1496787809,52484c58da7eb718dd71fdbf6baeb235,Form,6,0,son,NULL,_REACTION_TIME_,12368
1496787809,52484c58da7eb718dd71fdbf6baeb235,Question,35,1,c,NULL,NULL,Öğretmen Paris'te yaşamış.,1,3164
# Columns below this comment are as follows:
# 1. Time results were received.
# 2. MD5 hash of participant's IP address.
# 3. Controller name.
# 4. Item number.
# 5. Element number.
# 6. Type.
# 7. Group.
# 8. Question (NULL if none).
# 9. Answer.
# 10. Whether or not answer was correct (NULL if N/A).
# 11. Time taken to answer.
1496787809,52484c58da7eb718dd71fdbf6baeb235,Question,33,1,n,NULL,NULL,Ayşe'nin düşüncesi 'yağmur yağmıyor' şeklinde.,1,3620
1496787809,52484c58da7eb718dd71fdbf6baeb235,Question,36,1,c,NULL,NULL,Referandumu yüzde yüzle kazanmamış olabilir.,0,4203
1496787809,52484c58da7eb718dd71fdbf6baeb235,Question,34,1,n,NULL,NULL,Başkanın düşüncesi 'ortak bir karara varmak zor olacak' şeklinde değil.,0,12308
#
# Results on Wednesday June 07 2017 13:55:27 UTC.
# USER AGENT: Mozilla/5.0 (Windows NT 10.0; Win64; x64) AppleWebKit/537.36 (KHTML, like Gecko) Chrome/58.0.3029.110 Safari/537.36
# Design number was non-random = 11
#
# Columns below this comment are as follows:
# 1. Time results were received.
# 2. MD5 hash of participant's IP address.
# 3. Controller name.
# 4. Item number.
# 5. Element number.
# 6. Type.
# 7. Group.
# 8. Field name.
# 9. Field value.
1496843728,5cf02b3e71ecb8c4ff82c01605727d17,Form,2,0,intro,NULL,name,SK
1496843728,5cf02b3e71ecb8c4ff82c01605727d17,Form,2,0,intro,NULL,age,26
1496843728,5cf02b3e71ecb8c4ff82c01605727d17,Form,2,0,intro,NULL,anadil,yes
1496843728,5cf02b3e71ecb8c4ff82c01605727d17,Form,2,0,intro,NULL,_REACTION_TIME_,50506
1496843728,5cf02b3e71ecb8c4ff82c01605727d17,Form,3,0,intro,NULL,_REACTION_TIME_,34642
1496843728,5cf02b3e71ecb8c4ff82c01605727d17,Form,4,0,intro,NULL,_REACTION_TIME_,9466
# Columns below this comment are as follows:
# 1. Time results were received.
# 2. MD5 hash of participant's IP address.
# 3. Controller name.
# 4. Item number.
# 5. Element number.
# 6. Type.
# 7. Group.
# 8. Question (NULL if none).
# 9. Answer.
# 10. Whether or not answer was correct (NULL if N/A).
# 11. Time taken to answer.
1496843728,5cf02b3e71ecb8c4ff82c01605727d17,Question,32,1,p,NULL,NULL,kahveleri,0,3210
1496843728,5cf02b3e71ecb8c4ff82c01605727d17,Question,30,1,p,NULL,NULL,arayacak,0,3780
1496843728,5cf02b3e71ecb8c4ff82c01605727d17,Question,31,1,p,NULL,NULL,mi,1,2093
1496843728,5cf02b3e71ecb8c4ff82c01605727d17,Question,29,1,p,NULL,NULL,barış,1,2795
# The lines below this comment are in groups of 2.
# The formats of the lines in each of these groups are as follows:
#
# Line 1:
#     Col. 1: Time results were received.
#     Col. 2: MD5 hash of participant's IP address.
#     Col. 3: Controller name.
#     Col. 4: Item number.
#     Col. 5: Element number.
#     Col. 6: Type.
#     Col. 7: Group.
#     Col. 8: Field name.
#     Col. 9: Field value.
# Line 2:
#     Col. 1: Time results were received.
#     Col. 2: MD5 hash of participant's IP address.
#     Col. 3: Controller name.
#     Col. 4: Item number.
#     Col. 5: Element number.
#     Col. 6: Type.
#     Col. 7: Group.
#     Col. 8: Question (NULL if none).
#     Col. 9: Answer.
#     Col. 10: Whether or not answer was correct (NULL if N/A).
#     Col. 11: Time taken to answer.
1496843728,5cf02b3e71ecb8c4ff82c01605727d17,Form,5,0,devam,NULL,_REACTION_TIME_,4438
1496843728,5cf02b3e71ecb8c4ff82c01605727d17,Question,17,1,e,NULL,NULL,sanıyor,0,8155
# Columns below this comment are as follows:
# 1. Time results were received.
# 2. MD5 hash of participant's IP address.
# 3. Controller name.
# 4. Item number.
# 5. Element number.
# 6. Type.
# 7. Group.
# 8. Question (NULL if none).
# 9. Answer.
# 10. Whether or not answer was correct (NULL if N/A).
# 11. Time taken to answer.
1496843728,5cf02b3e71ecb8c4ff82c01605727d17,Question,19,1,f,NULL,NULL,gördü,1,3912
1496843728,5cf02b3e71ecb8c4ff82c01605727d17,Question,16,1,e,NULL,NULL,düşünüyor,0,3002
1496843728,5cf02b3e71ecb8c4ff82c01605727d17,Question,20,1,f,NULL,NULL,gördü,0,3065
1496843728,5cf02b3e71ecb8c4ff82c01605727d17,Question,8,1,e,NULL,NULL,düşünüyor,0,2593
1496843728,5cf02b3e71ecb8c4ff82c01605727d17,Question,25,1,f,NULL,NULL,fark etti,1,2333
1496843728,5cf02b3e71ecb8c4ff82c01605727d17,Question,18,1,e,NULL,NULL,düşünüyor,1,6965
1496843728,5cf02b3e71ecb8c4ff82c01605727d17,Question,28,1,f,NULL,NULL,unuttu,1,3802
1496843728,5cf02b3e71ecb8c4ff82c01605727d17,Question,7,1,e,NULL,NULL,biliyor,0,4377
1496843728,5cf02b3e71ecb8c4ff82c01605727d17,Question,21,1,f,NULL,NULL,özledi,0,2707
1496843728,5cf02b3e71ecb8c4ff82c01605727d17,Question,15,1,e,NULL,NULL,biliyor,0,3289
1496843728,5cf02b3e71ecb8c4ff82c01605727d17,Question,10,1,e,NULL,NULL,hatırlıyor,0,2790
1496843728,5cf02b3e71ecb8c4ff82c01605727d17,Question,22,1,f,NULL,NULL,gördü,0,3328
1496843728,5cf02b3e71ecb8c4ff82c01605727d17,Question,13,1,e,NULL,NULL,biliyor,1,2063
1496843728,5cf02b3e71ecb8c4ff82c01605727d17,Question,23,1,f,NULL,NULL,gördü,1,3230
1496843728,5cf02b3e71ecb8c4ff82c01605727d17,Question,11,1,e,NULL,NULL,biliyor,0,2463
1496843728,5cf02b3e71ecb8c4ff82c01605727d17,Question,27,1,f,NULL,NULL,fark etti,1,2829
1496843728,5cf02b3e71ecb8c4ff82c01605727d17,Question,14,1,e,NULL,NULL,düşünüyor,1,2652
1496843728,5cf02b3e71ecb8c4ff82c01605727d17,Question,24,1,f,NULL,NULL,unuttu,1,2348
1496843728,5cf02b3e71ecb8c4ff82c01605727d17,Question,12,1,e,NULL,NULL,düşünüyor,0,2317
1496843728,5cf02b3e71ecb8c4ff82c01605727d17,Question,26,1,f,NULL,NULL,fark etti,0,2499
1496843728,5cf02b3e71ecb8c4ff82c01605727d17,Question,9,1,e,NULL,NULL,biliyor,1,1747
# The lines below this comment are in groups of 2.
# The formats of the lines in each of these groups are as follows:
#
# Line 1:
#     Col. 1: Time results were received.
#     Col. 2: MD5 hash of participant's IP address.
#     Col. 3: Controller name.
#     Col. 4: Item number.
#     Col. 5: Element number.
#     Col. 6: Type.
#     Col. 7: Group.
#     Col. 8: Field name.
#     Col. 9: Field value.
# Line 2:
#     Col. 1: Time results were received.
#     Col. 2: MD5 hash of participant's IP address.
#     Col. 3: Controller name.
#     Col. 4: Item number.
#     Col. 5: Element number.
#     Col. 6: Type.
#     Col. 7: Group.
#     Col. 8: Question (NULL if none).
#     Col. 9: Answer.
#     Col. 10: Whether or not answer was correct (NULL if N/A).
#     Col. 11: Time taken to answer.
1496843728,5cf02b3e71ecb8c4ff82c01605727d17,Form,6,0,son,NULL,_REACTION_TIME_,16580
1496843728,5cf02b3e71ecb8c4ff82c01605727d17,Question,36,1,c,NULL,NULL,Referandumu yüzde yüzle kazanmış.,1,4497
# Columns below this comment are as follows:
# 1. Time results were received.
# 2. MD5 hash of participant's IP address.
# 3. Controller name.
# 4. Item number.
# 5. Element number.
# 6. Type.
# 7. Group.
# 8. Question (NULL if none).
# 9. Answer.
# 10. Whether or not answer was correct (NULL if N/A).
# 11. Time taken to answer.
1496843728,5cf02b3e71ecb8c4ff82c01605727d17,Question,34,1,n,NULL,NULL,Başkanın düşüncesi 'ortak bir karara varmak zor olmayacak' şeklinde.,1,8180
1496843728,5cf02b3e71ecb8c4ff82c01605727d17,Question,35,1,c,NULL,NULL,Öğretmen Paris'te yaşamış.,1,3890
1496843728,5cf02b3e71ecb8c4ff82c01605727d17,Question,33,1,n,NULL,NULL,Ayşe'nin düşüncesi 'yağmur yağıyor' şeklinde değil.,0,13119
#
# Results on Wednesday June 07 2017 15:34:02 UTC.
# USER AGENT: Mozilla/5.0 (Windows NT 6.1; Win64; x64) AppleWebKit/537.36 (KHTML, like Gecko) Chrome/58.0.3029.110 Safari/537.36
# Design number was non-random = 12
#
# Columns below this comment are as follows:
# 1. Time results were received.
# 2. MD5 hash of participant's IP address.
# 3. Controller name.
# 4. Item number.
# 5. Element number.
# 6. Type.
# 7. Group.
# 8. Field name.
# 9. Field value.
1496849642,ee3e45f0dfe591d157dc79da01e45cf8,Form,2,0,intro,NULL,name,İ K
1496849642,ee3e45f0dfe591d157dc79da01e45cf8,Form,2,0,intro,NULL,age,27
1496849642,ee3e45f0dfe591d157dc79da01e45cf8,Form,2,0,intro,NULL,anadil,yes
1496849642,ee3e45f0dfe591d157dc79da01e45cf8,Form,2,0,intro,NULL,_REACTION_TIME_,12693
1496849642,ee3e45f0dfe591d157dc79da01e45cf8,Form,3,0,intro,NULL,_REACTION_TIME_,16655
1496849642,ee3e45f0dfe591d157dc79da01e45cf8,Form,4,0,intro,NULL,_REACTION_TIME_,15486
# Columns below this comment are as follows:
# 1. Time results were received.
# 2. MD5 hash of participant's IP address.
# 3. Controller name.
# 4. Item number.
# 5. Element number.
# 6. Type.
# 7. Group.
# 8. Question (NULL if none).
# 9. Answer.
# 10. Whether or not answer was correct (NULL if N/A).
# 11. Time taken to answer.
1496849642,ee3e45f0dfe591d157dc79da01e45cf8,Question,30,1,p,NULL,NULL,arayacak,0,5993
1496849642,ee3e45f0dfe591d157dc79da01e45cf8,Question,31,1,p,NULL,NULL,mi,1,2452
1496849642,ee3e45f0dfe591d157dc79da01e45cf8,Question,29,1,p,NULL,NULL,savaş,0,2489
1496849642,ee3e45f0dfe591d157dc79da01e45cf8,Question,32,1,p,NULL,NULL,kahveleri,0,1740
# The lines below this comment are in groups of 2.
# The formats of the lines in each of these groups are as follows:
#
# Line 1:
#     Col. 1: Time results were received.
#     Col. 2: MD5 hash of participant's IP address.
#     Col. 3: Controller name.
#     Col. 4: Item number.
#     Col. 5: Element number.
#     Col. 6: Type.
#     Col. 7: Group.
#     Col. 8: Field name.
#     Col. 9: Field value.
# Line 2:
#     Col. 1: Time results were received.
#     Col. 2: MD5 hash of participant's IP address.
#     Col. 3: Controller name.
#     Col. 4: Item number.
#     Col. 5: Element number.
#     Col. 6: Type.
#     Col. 7: Group.
#     Col. 8: Question (NULL if none).
#     Col. 9: Answer.
#     Col. 10: Whether or not answer was correct (NULL if N/A).
#     Col. 11: Time taken to answer.
1496849642,ee3e45f0dfe591d157dc79da01e45cf8,Form,5,0,devam,NULL,_REACTION_TIME_,3468
1496849642,ee3e45f0dfe591d157dc79da01e45cf8,Question,7,1,e,NULL,NULL,sanıyor,1,1486
# Columns below this comment are as follows:
# 1. Time results were received.
# 2. MD5 hash of participant's IP address.
# 3. Controller name.
# 4. Item number.
# 5. Element number.
# 6. Type.
# 7. Group.
# 8. Question (NULL if none).
# 9. Answer.
# 10. Whether or not answer was correct (NULL if N/A).
# 11. Time taken to answer.
1496849642,ee3e45f0dfe591d157dc79da01e45cf8,Question,17,1,e,NULL,NULL,biliyor,1,2116
1496849642,ee3e45f0dfe591d157dc79da01e45cf8,Question,21,1,f,NULL,NULL,gördü,1,1486
1496849642,ee3e45f0dfe591d157dc79da01e45cf8,Question,16,1,e,NULL,NULL,düşünüyor,0,1374
1496849642,ee3e45f0dfe591d157dc79da01e45cf8,Question,28,1,f,NULL,NULL,fark etti,0,1506
1496849642,ee3e45f0dfe591d157dc79da01e45cf8,Question,11,1,e,NULL,NULL,sanıyor,1,2241
1496849642,ee3e45f0dfe591d157dc79da01e45cf8,Question,27,1,f,NULL,NULL,fark etti,1,2899
1496849642,ee3e45f0dfe591d157dc79da01e45cf8,Question,12,1,e,NULL,NULL,düşünüyor,0,1707
1496849642,ee3e45f0dfe591d157dc79da01e45cf8,Question,26,1,f,NULL,NULL,fark etti,0,2620
1496849642,ee3e45f0dfe591d157dc79da01e45cf8,Question,15,1,e,NULL,NULL,biliyor,0,3114
1496849642,ee3e45f0dfe591d157dc79da01e45cf8,Question,25,1,f,NULL,NULL,fark etti,1,2140
1496849642,ee3e45f0dfe591d157dc79da01e45cf8,Question,8,1,e,NULL,NULL,düşünüyor,0,1894
1496849642,ee3e45f0dfe591d157dc79da01e45cf8,Question,14,1,e,NULL,NULL,düşünüyor,1,1888
1496849642,ee3e45f0dfe591d157dc79da01e45cf8,Question,22,1,f,NULL,NULL,gördü,0,1547
1496849642,ee3e45f0dfe591d157dc79da01e45cf8,Question,13,1,e,NULL,NULL,sanıyor,0,1972
1496849642,ee3e45f0dfe591d157dc79da01e45cf8,Question,23,1,f,NULL,NULL,gördü,1,5163
1496849642,ee3e45f0dfe591d157dc79da01e45cf8,Question,9,1,e,NULL,NULL,sanıyor,0,1930
1496849642,ee3e45f0dfe591d157dc79da01e45cf8,Question,19,1,f,NULL,NULL,özledi,0,1201
1496849642,ee3e45f0dfe591d157dc79da01e45cf8,Question,10,1,e,NULL,NULL,düşünüyor,1,3899
1496849642,ee3e45f0dfe591d157dc79da01e45cf8,Question,20,1,f,NULL,NULL,gördü,0,2725
1496849642,ee3e45f0dfe591d157dc79da01e45cf8,Question,18,1,e,NULL,NULL,düşünüyor,1,1796
1496849642,ee3e45f0dfe591d157dc79da01e45cf8,Question,24,1,f,NULL,NULL,fark etti,0,3186
# The lines below this comment are in groups of 2.
# The formats of the lines in each of these groups are as follows:
#
# Line 1:
#     Col. 1: Time results were received.
#     Col. 2: MD5 hash of participant's IP address.
#     Col. 3: Controller name.
#     Col. 4: Item number.
#     Col. 5: Element number.
#     Col. 6: Type.
#     Col. 7: Group.
#     Col. 8: Field name.
#     Col. 9: Field value.
# Line 2:
#     Col. 1: Time results were received.
#     Col. 2: MD5 hash of participant's IP address.
#     Col. 3: Controller name.
#     Col. 4: Item number.
#     Col. 5: Element number.
#     Col. 6: Type.
#     Col. 7: Group.
#     Col. 8: Question (NULL if none).
#     Col. 9: Answer.
#     Col. 10: Whether or not answer was correct (NULL if N/A).
#     Col. 11: Time taken to answer.
1496849642,ee3e45f0dfe591d157dc79da01e45cf8,Form,6,0,son,NULL,_REACTION_TIME_,16729
1496849642,ee3e45f0dfe591d157dc79da01e45cf8,Question,36,1,c,NULL,NULL,Referandumu yüzde yüzle kazanmamış olabilir.,0,9667
# Columns below this comment are as follows:
# 1. Time results were received.
# 2. MD5 hash of participant's IP address.
# 3. Controller name.
# 4. Item number.
# 5. Element number.
# 6. Type.
# 7. Group.
# 8. Question (NULL if none).
# 9. Answer.
# 10. Whether or not answer was correct (NULL if N/A).
# 11. Time taken to answer.
1496849642,ee3e45f0dfe591d157dc79da01e45cf8,Question,33,1,n,NULL,NULL,Ayşe'nin düşüncesi 'yağmur yağıyor' şeklinde değil.,0,7924
1496849642,ee3e45f0dfe591d157dc79da01e45cf8,Question,35,1,c,NULL,NULL,Öğretmen Paris'te yaşamış.,1,9273
1496849642,ee3e45f0dfe591d157dc79da01e45cf8,Question,34,1,n,NULL,NULL,Başkanın düşüncesi 'ortak bir karara varmak zor olmayacak' şeklinde.,1,21358
#
# Results on Wednesday June 07 2017 18:39:07 UTC.
# USER AGENT: Mozilla/5.0 (Windows NT 6.1; Win64; x64) AppleWebKit/537.36 (KHTML, like Gecko) Chrome/58.0.3029.110 Safari/537.36
# Design number was non-random = 13
#
# Columns below this comment are as follows:
# 1. Time results were received.
# 2. MD5 hash of participant's IP address.
# 3. Controller name.
# 4. Item number.
# 5. Element number.
# 6. Type.
# 7. Group.
# 8. Field name.
# 9. Field value.
1496860747,fbd03a374b04670702148cb205ca3713,Form,2,0,intro,NULL,name,db
1496860747,fbd03a374b04670702148cb205ca3713,Form,2,0,intro,NULL,age,26
1496860747,fbd03a374b04670702148cb205ca3713,Form,2,0,intro,NULL,anadil,yes
1496860747,fbd03a374b04670702148cb205ca3713,Form,2,0,intro,NULL,_REACTION_TIME_,67959
1496860747,fbd03a374b04670702148cb205ca3713,Form,3,0,intro,NULL,_REACTION_TIME_,117492
1496860747,fbd03a374b04670702148cb205ca3713,Form,4,0,intro,NULL,_REACTION_TIME_,6293
# Columns below this comment are as follows:
# 1. Time results were received.
# 2. MD5 hash of participant's IP address.
# 3. Controller name.
# 4. Item number.
# 5. Element number.
# 6. Type.
# 7. Group.
# 8. Question (NULL if none).
# 9. Answer.
# 10. Whether or not answer was correct (NULL if N/A).
# 11. Time taken to answer.
1496860747,fbd03a374b04670702148cb205ca3713,Question,32,1,p,NULL,NULL,kahveleri,0,2749
1496860747,fbd03a374b04670702148cb205ca3713,Question,30,1,p,NULL,NULL,arayacak,0,4299
1496860747,fbd03a374b04670702148cb205ca3713,Question,29,1,p,NULL,NULL,barış,1,2224
1496860747,fbd03a374b04670702148cb205ca3713,Question,31,1,p,NULL,NULL,mi,1,1322
# The lines below this comment are in groups of 2.
# The formats of the lines in each of these groups are as follows:
#
# Line 1:
#     Col. 1: Time results were received.
#     Col. 2: MD5 hash of participant's IP address.
#     Col. 3: Controller name.
#     Col. 4: Item number.
#     Col. 5: Element number.
#     Col. 6: Type.
#     Col. 7: Group.
#     Col. 8: Field name.
#     Col. 9: Field value.
# Line 2:
#     Col. 1: Time results were received.
#     Col. 2: MD5 hash of participant's IP address.
#     Col. 3: Controller name.
#     Col. 4: Item number.
#     Col. 5: Element number.
#     Col. 6: Type.
#     Col. 7: Group.
#     Col. 8: Question (NULL if none).
#     Col. 9: Answer.
#     Col. 10: Whether or not answer was correct (NULL if N/A).
#     Col. 11: Time taken to answer.
1496860747,fbd03a374b04670702148cb205ca3713,Form,5,0,devam,NULL,_REACTION_TIME_,7879
1496860747,fbd03a374b04670702148cb205ca3713,Question,17,1,e,NULL,NULL,sanıyor,0,4838
# Columns below this comment are as follows:
# 1. Time results were received.
# 2. MD5 hash of participant's IP address.
# 3. Controller name.
# 4. Item number.
# 5. Element number.
# 6. Type.
# 7. Group.
# 8. Question (NULL if none).
# 9. Answer.
# 10. Whether or not answer was correct (NULL if N/A).
# 11. Time taken to answer.
1496860747,fbd03a374b04670702148cb205ca3713,Question,10,1,e,NULL,NULL,düşünüyor,1,3377
1496860747,fbd03a374b04670702148cb205ca3713,Question,27,1,f,NULL,NULL,fark etti,1,6903
1496860747,fbd03a374b04670702148cb205ca3713,Question,18,1,e,NULL,NULL,düşünüyor,1,6119
1496860747,fbd03a374b04670702148cb205ca3713,Question,24,1,f,NULL,NULL,fark etti,0,6479
1496860747,fbd03a374b04670702148cb205ca3713,Question,7,1,e,NULL,NULL,sanıyor,1,3316
1496860747,fbd03a374b04670702148cb205ca3713,Question,22,1,f,NULL,NULL,gördü,0,4207
1496860747,fbd03a374b04670702148cb205ca3713,Question,11,1,e,NULL,NULL,sanıyor,1,5980
1496860747,fbd03a374b04670702148cb205ca3713,Question,21,1,f,NULL,NULL,gördü,1,4760
1496860747,fbd03a374b04670702148cb205ca3713,Question,12,1,e,NULL,NULL,düşünüyor,0,4321
1496860747,fbd03a374b04670702148cb205ca3713,Question,28,1,f,NULL,NULL,fark etti,0,2007
1496860747,fbd03a374b04670702148cb205ca3713,Question,13,1,e,NULL,NULL,sanıyor,0,2042
1496860747,fbd03a374b04670702148cb205ca3713,Question,14,1,e,NULL,NULL,düşünüyor,1,1901
1496860747,fbd03a374b04670702148cb205ca3713,Question,26,1,f,NULL,NULL,fark etti,0,1850
1496860747,fbd03a374b04670702148cb205ca3713,Question,16,1,e,NULL,NULL,düşünüyor,0,3230
1496860747,fbd03a374b04670702148cb205ca3713,Question,23,1,f,NULL,NULL,gördü,1,6375
1496860747,fbd03a374b04670702148cb205ca3713,Question,8,1,e,NULL,NULL,düşünüyor,0,3973
1496860747,fbd03a374b04670702148cb205ca3713,Question,20,1,f,NULL,NULL,gördü,0,1830
1496860747,fbd03a374b04670702148cb205ca3713,Question,15,1,e,NULL,NULL,sanıyor,1,1553
1496860747,fbd03a374b04670702148cb205ca3713,Question,19,1,f,NULL,NULL,özledi,0,2336
1496860747,fbd03a374b04670702148cb205ca3713,Question,9,1,e,NULL,NULL,sanıyor,0,977
1496860747,fbd03a374b04670702148cb205ca3713,Question,25,1,f,NULL,NULL,fark etti,1,1084
# The lines below this comment are in groups of 2.
# The formats of the lines in each of these groups are as follows:
#
# Line 1:
#     Col. 1: Time results were received.
#     Col. 2: MD5 hash of participant's IP address.
#     Col. 3: Controller name.
#     Col. 4: Item number.
#     Col. 5: Element number.
#     Col. 6: Type.
#     Col. 7: Group.
#     Col. 8: Field name.
#     Col. 9: Field value.
# Line 2:
#     Col. 1: Time results were received.
#     Col. 2: MD5 hash of participant's IP address.
#     Col. 3: Controller name.
#     Col. 4: Item number.
#     Col. 5: Element number.
#     Col. 6: Type.
#     Col. 7: Group.
#     Col. 8: Question (NULL if none).
#     Col. 9: Answer.
#     Col. 10: Whether or not answer was correct (NULL if N/A).
#     Col. 11: Time taken to answer.
1496860747,fbd03a374b04670702148cb205ca3713,Form,6,0,son,NULL,_REACTION_TIME_,1779161
1496860747,fbd03a374b04670702148cb205ca3713,Question,34,1,n,NULL,NULL,Başkanın düşüncesi 'ortak bir karara varmak zor olmayacak' şeklinde.,1,13522
# Columns below this comment are as follows:
# 1. Time results were received.
# 2. MD5 hash of participant's IP address.
# 3. Controller name.
# 4. Item number.
# 5. Element number.
# 6. Type.
# 7. Group.
# 8. Question (NULL if none).
# 9. Answer.
# 10. Whether or not answer was correct (NULL if N/A).
# 11. Time taken to answer.
1496860747,fbd03a374b04670702148cb205ca3713,Question,36,1,c,NULL,NULL,Referandumu yüzde yüzle kazanmış.,1,7507
1496860747,fbd03a374b04670702148cb205ca3713,Question,33,1,n,NULL,NULL,Ayşe'nin düşüncesi 'yağmur yağmıyor' şeklinde.,1,3210
1496860747,fbd03a374b04670702148cb205ca3713,Question,35,1,c,NULL,NULL,Öğretmen Paris'te yaşamış.,1,9373
#
# Results on Wednesday June 07 2017 19:09:21 UTC.
# USER AGENT: Mozilla/5.0 (Windows NT 6.3; Win64; x64) AppleWebKit/537.36 (KHTML, like Gecko) Chrome/58.0.3029.110 Safari/537.36
# Design number was non-random = 14
#
# Columns below this comment are as follows:
# 1. Time results were received.
# 2. MD5 hash of participant's IP address.
# 3. Controller name.
# 4. Item number.
# 5. Element number.
# 6. Type.
# 7. Group.
# 8. Field name.
# 9. Field value.
1496862562,f6fc6c8113abe4d5c6a174c2bb5829bc,Form,2,0,intro,NULL,name,HP
1496862562,f6fc6c8113abe4d5c6a174c2bb5829bc,Form,2,0,intro,NULL,age,54
1496862562,f6fc6c8113abe4d5c6a174c2bb5829bc,Form,2,0,intro,NULL,anadil,yes
1496862562,f6fc6c8113abe4d5c6a174c2bb5829bc,Form,2,0,intro,NULL,_REACTION_TIME_,41867
1496862562,f6fc6c8113abe4d5c6a174c2bb5829bc,Form,3,0,intro,NULL,_REACTION_TIME_,36510
1496862562,f6fc6c8113abe4d5c6a174c2bb5829bc,Form,4,0,intro,NULL,_REACTION_TIME_,14740
# Columns below this comment are as follows:
# 1. Time results were received.
# 2. MD5 hash of participant's IP address.
# 3. Controller name.
# 4. Item number.
# 5. Element number.
# 6. Type.
# 7. Group.
# 8. Question (NULL if none).
# 9. Answer.
# 10. Whether or not answer was correct (NULL if N/A).
# 11. Time taken to answer.
1496862562,f6fc6c8113abe4d5c6a174c2bb5829bc,Question,30,1,p,NULL,NULL,arayacak,0,3510
1496862562,f6fc6c8113abe4d5c6a174c2bb5829bc,Question,29,1,p,NULL,NULL,barış,1,2465
1496862562,f6fc6c8113abe4d5c6a174c2bb5829bc,Question,31,1,p,NULL,NULL,mi,1,2578
1496862562,f6fc6c8113abe4d5c6a174c2bb5829bc,Question,32,1,p,NULL,NULL,kahveleri,0,1738
# The lines below this comment are in groups of 2.
# The formats of the lines in each of these groups are as follows:
#
# Line 1:
#     Col. 1: Time results were received.
#     Col. 2: MD5 hash of participant's IP address.
#     Col. 3: Controller name.
#     Col. 4: Item number.
#     Col. 5: Element number.
#     Col. 6: Type.
#     Col. 7: Group.
#     Col. 8: Field name.
#     Col. 9: Field value.
# Line 2:
#     Col. 1: Time results were received.
#     Col. 2: MD5 hash of participant's IP address.
#     Col. 3: Controller name.
#     Col. 4: Item number.
#     Col. 5: Element number.
#     Col. 6: Type.
#     Col. 7: Group.
#     Col. 8: Question (NULL if none).
#     Col. 9: Answer.
#     Col. 10: Whether or not answer was correct (NULL if N/A).
#     Col. 11: Time taken to answer.
1496862562,f6fc6c8113abe4d5c6a174c2bb5829bc,Form,5,0,devam,NULL,_REACTION_TIME_,2840
1496862562,f6fc6c8113abe4d5c6a174c2bb5829bc,Question,16,1,e,NULL,NULL,hatırlıyor,1,3422
# Columns below this comment are as follows:
# 1. Time results were received.
# 2. MD5 hash of participant's IP address.
# 3. Controller name.
# 4. Item number.
# 5. Element number.
# 6. Type.
# 7. Group.
# 8. Question (NULL if none).
# 9. Answer.
# 10. Whether or not answer was correct (NULL if N/A).
# 11. Time taken to answer.
1496862562,f6fc6c8113abe4d5c6a174c2bb5829bc,Question,17,1,e,NULL,NULL,sanıyor,0,1925
1496862562,f6fc6c8113abe4d5c6a174c2bb5829bc,Question,19,1,f,NULL,NULL,gördü,1,2430
1496862562,f6fc6c8113abe4d5c6a174c2bb5829bc,Question,8,1,e,NULL,NULL,düşünüyor,0,1802
1496862562,f6fc6c8113abe4d5c6a174c2bb5829bc,Question,24,1,f,NULL,NULL,fark etti,0,1701
1496862562,f6fc6c8113abe4d5c6a174c2bb5829bc,Question,14,1,e,NULL,NULL,hatırlıyor,0,2215
1496862562,f6fc6c8113abe4d5c6a174c2bb5829bc,Question,20,1,f,NULL,NULL,gördü,0,1175
1496862562,f6fc6c8113abe4d5c6a174c2bb5829bc,Question,10,1,e,NULL,NULL,düşünüyor,1,1883
1496862562,f6fc6c8113abe4d5c6a174c2bb5829bc,Question,21,1,f,NULL,NULL,gördü,1,1995
1496862562,f6fc6c8113abe4d5c6a174c2bb5829bc,Question,15,1,e,NULL,NULL,sanıyor,1,1622
1496862562,f6fc6c8113abe4d5c6a174c2bb5829bc,Question,25,1,f,NULL,NULL,fark etti,1,1865
1496862562,f6fc6c8113abe4d5c6a174c2bb5829bc,Question,12,1,e,NULL,NULL,düşünüyor,0,1394
1496862562,f6fc6c8113abe4d5c6a174c2bb5829bc,Question,9,1,e,NULL,NULL,biliyor,1,680
1496862562,f6fc6c8113abe4d5c6a174c2bb5829bc,Question,22,1,f,NULL,NULL,gördü,0,1676
1496862562,f6fc6c8113abe4d5c6a174c2bb5829bc,Question,11,1,e,NULL,NULL,biliyor,0,1692
1496862562,f6fc6c8113abe4d5c6a174c2bb5829bc,Question,27,1,f,NULL,NULL,unuttu,0,1468
1496862562,f6fc6c8113abe4d5c6a174c2bb5829bc,Question,13,1,e,NULL,NULL,sanıyor,0,1588
1496862562,f6fc6c8113abe4d5c6a174c2bb5829bc,Question,26,1,f,NULL,NULL,fark etti,0,1899
1496862562,f6fc6c8113abe4d5c6a174c2bb5829bc,Question,7,1,e,NULL,NULL,biliyor,0,1475
1496862562,f6fc6c8113abe4d5c6a174c2bb5829bc,Question,28,1,f,NULL,NULL,fark etti,0,1450
1496862562,f6fc6c8113abe4d5c6a174c2bb5829bc,Question,18,1,e,NULL,NULL,düşünüyor,1,1291
1496862562,f6fc6c8113abe4d5c6a174c2bb5829bc,Question,23,1,f,NULL,NULL,gördü,1,1743
# The lines below this comment are in groups of 2.
# The formats of the lines in each of these groups are as follows:
#
# Line 1:
#     Col. 1: Time results were received.
#     Col. 2: MD5 hash of participant's IP address.
#     Col. 3: Controller name.
#     Col. 4: Item number.
#     Col. 5: Element number.
#     Col. 6: Type.
#     Col. 7: Group.
#     Col. 8: Field name.
#     Col. 9: Field value.
# Line 2:
#     Col. 1: Time results were received.
#     Col. 2: MD5 hash of participant's IP address.
#     Col. 3: Controller name.
#     Col. 4: Item number.
#     Col. 5: Element number.
#     Col. 6: Type.
#     Col. 7: Group.
#     Col. 8: Question (NULL if none).
#     Col. 9: Answer.
#     Col. 10: Whether or not answer was correct (NULL if N/A).
#     Col. 11: Time taken to answer.
1496862562,f6fc6c8113abe4d5c6a174c2bb5829bc,Form,6,0,son,NULL,_REACTION_TIME_,6266
1496862562,f6fc6c8113abe4d5c6a174c2bb5829bc,Question,36,1,c,NULL,NULL,Referandumu yüzde yüzle kazanmış.,1,3990
# Columns below this comment are as follows:
# 1. Time results were received.
# 2. MD5 hash of participant's IP address.
# 3. Controller name.
# 4. Item number.
# 5. Element number.
# 6. Type.
# 7. Group.
# 8. Question (NULL if none).
# 9. Answer.
# 10. Whether or not answer was correct (NULL if N/A).
# 11. Time taken to answer.
1496862562,f6fc6c8113abe4d5c6a174c2bb5829bc,Question,33,1,n,NULL,NULL,Ayşe'nin düşüncesi 'yağmur yağıyor' şeklinde değil.,0,11955
1496862562,f6fc6c8113abe4d5c6a174c2bb5829bc,Question,35,1,c,NULL,NULL,Öğretmen Paris'te yaşamış.,1,3363
1496862562,f6fc6c8113abe4d5c6a174c2bb5829bc,Question,34,1,n,NULL,NULL,Başkanın düşüncesi 'ortak bir karara varmak zor olmayacak' şeklinde.,1,7822
#
# Results on Thursday June 08 2017 11:08:26 UTC.
# USER AGENT: Mozilla/5.0 (Windows NT 10.0; Win64; x64) AppleWebKit/537.36 (KHTML, like Gecko) Chrome/51.0.2704.79 Safari/537.36 Edge/14.14393
# Design number was non-random = 15
#
# Columns below this comment are as follows:
# 1. Time results were received.
# 2. MD5 hash of participant's IP address.
# 3. Controller name.
# 4. Item number.
# 5. Element number.
# 6. Type.
# 7. Group.
# 8. Field name.
# 9. Field value.
1496920106,b086b1fec7a7b392cd629fbbbf00168c,Form,2,0,intro,NULL,name,KK
1496920106,b086b1fec7a7b392cd629fbbbf00168c,Form,2,0,intro,NULL,age,40
1496920106,b086b1fec7a7b392cd629fbbbf00168c,Form,2,0,intro,NULL,anadil,yes
1496920106,b086b1fec7a7b392cd629fbbbf00168c,Form,2,0,intro,NULL,_REACTION_TIME_,20133
1496920106,b086b1fec7a7b392cd629fbbbf00168c,Form,3,0,intro,NULL,_REACTION_TIME_,2278
1496920106,b086b1fec7a7b392cd629fbbbf00168c,Form,4,0,intro,NULL,_REACTION_TIME_,2151
# Columns below this comment are as follows:
# 1. Time results were received.
# 2. MD5 hash of participant's IP address.
# 3. Controller name.
# 4. Item number.
# 5. Element number.
# 6. Type.
# 7. Group.
# 8. Question (NULL if none).
# 9. Answer.
# 10. Whether or not answer was correct (NULL if N/A).
# 11. Time taken to answer.
1496920106,b086b1fec7a7b392cd629fbbbf00168c,Question,32,1,p,NULL,NULL,kahveleri,0,1931
1496920106,b086b1fec7a7b392cd629fbbbf00168c,Question,31,1,p,NULL,NULL,mi,1,2614
1496920106,b086b1fec7a7b392cd629fbbbf00168c,Question,29,1,p,NULL,NULL,barış,1,2196
1496920106,b086b1fec7a7b392cd629fbbbf00168c,Question,30,1,p,NULL,NULL,arayacak,0,2878
# The lines below this comment are in groups of 2.
# The formats of the lines in each of these groups are as follows:
#
# Line 1:
#     Col. 1: Time results were received.
#     Col. 2: MD5 hash of participant's IP address.
#     Col. 3: Controller name.
#     Col. 4: Item number.
#     Col. 5: Element number.
#     Col. 6: Type.
#     Col. 7: Group.
#     Col. 8: Field name.
#     Col. 9: Field value.
# Line 2:
#     Col. 1: Time results were received.
#     Col. 2: MD5 hash of participant's IP address.
#     Col. 3: Controller name.
#     Col. 4: Item number.
#     Col. 5: Element number.
#     Col. 6: Type.
#     Col. 7: Group.
#     Col. 8: Question (NULL if none).
#     Col. 9: Answer.
#     Col. 10: Whether or not answer was correct (NULL if N/A).
#     Col. 11: Time taken to answer.
1496920106,b086b1fec7a7b392cd629fbbbf00168c,Form,5,0,devam,NULL,_REACTION_TIME_,1703
1496920106,b086b1fec7a7b392cd629fbbbf00168c,Question,7,1,e,NULL,NULL,sanıyor,1,3635
# Columns below this comment are as follows:
# 1. Time results were received.
# 2. MD5 hash of participant's IP address.
# 3. Controller name.
# 4. Item number.
# 5. Element number.
# 6. Type.
# 7. Group.
# 8. Question (NULL if none).
# 9. Answer.
# 10. Whether or not answer was correct (NULL if N/A).
# 11. Time taken to answer.
1496920106,b086b1fec7a7b392cd629fbbbf00168c,Question,12,1,e,NULL,NULL,düşünüyor,0,3789
1496920106,b086b1fec7a7b392cd629fbbbf00168c,Question,19,1,f,NULL,NULL,özledi,0,8306
1496920106,b086b1fec7a7b392cd629fbbbf00168c,Question,11,1,e,NULL,NULL,sanıyor,1,4355
1496920106,b086b1fec7a7b392cd629fbbbf00168c,Question,26,1,f,NULL,NULL,fark etti,0,2087
1496920106,b086b1fec7a7b392cd629fbbbf00168c,Question,13,1,e,NULL,NULL,sanıyor,0,2780
1496920106,b086b1fec7a7b392cd629fbbbf00168c,Question,21,1,f,NULL,NULL,gördü,1,2116
1496920106,b086b1fec7a7b392cd629fbbbf00168c,Question,14,1,e,NULL,NULL,düşünüyor,1,2851
1496920106,b086b1fec7a7b392cd629fbbbf00168c,Question,25,1,f,NULL,NULL,fark etti,1,1714
1496920106,b086b1fec7a7b392cd629fbbbf00168c,Question,18,1,e,NULL,NULL,düşünüyor,1,1870
1496920106,b086b1fec7a7b392cd629fbbbf00168c,Question,20,1,f,NULL,NULL,gördü,0,2694
1496920106,b086b1fec7a7b392cd629fbbbf00168c,Question,16,1,e,NULL,NULL,düşünüyor,0,1471
